time;pitch;pitch_est;roll;roll_est;ax;ay;az
100;-0.028206082060933113;-0.07368760723620653;-0.01190885342657566;0.011630562096834184;0.14789201319217682;0.021608538925647736;0.968207597732544
200;-0.019702166318893433;-0.10066889219008401;-0.016020672395825386;0.016245886274066187;0.12728409469127655;0.02136574685573578;0.9435941576957703
300;-0.03034292720258236;-0.11476472690371509;-0.011663476936519146;0.02131860991311753;0.12849633395671844;0.02694997750222683;0.9521235823631287
400;-0.0403093583881855;-0.11887942436974906;-0.007312081288546324;0.020862151903073167;0.12267763167619705;0.020880160853266716;0.9472496509552002
500;-0.048851706087589264;-0.1284505897743082;-0.00374917546287179;0.018555606340573922;0.13770928978919983;0.016752686351537704;0.952610969543457
600;-0.057347897440195084;-0.13141569678550097;-0.000776093453168869;0.01721138207003478;0.13407258689403534;0.01626710407435894;0.9474933743476868
700;-0.0650024563074112;-0.13204414987359162;0.002032170770689845;0.016652741029785385;0.13237546384334564;0.016509894281625748;0.9501740336418152
800;-0.07060284167528152;-0.13112869516443953;0.0046103042550385;0.016149652194831145;0.12995101511478424;0.016024310141801834;0.9350647926330566
900;-0.07586019486188889;-0.13142527967230136;0.006498667877167463;0.01662440940715894;0.13140568137168884;0.017481066286563873;0.956266462802887
1000;-0.0824861153960228;-0.13541527488205812;0.008736117742955685;0.014464424397483735;0.13916395604610443;0.012625213712453842;0.9538294672966003
1100;-0.08795403689146042;-0.13476739301386642;0.010338736698031425;0.016903627583692432;0.13383014500141144;0.019666196778416634;0.9579722881317139
1200;-0.09233585000038147;-0.1318504902140957;0.012243939563632011;0.01945881344683747;0.12873879075050354;0.022336916998028755;0.9645521640777588
1300;-0.09701412171125412;-0.134845520268295;0.013874605298042297;0.01696789329659438;0.13746683299541473;0.014810346998274326;0.9582160115242004
1400;-0.10186422616243362;-0.13488003772992918;0.014303959906101227;0.013126398634632351;0.13455748558044434;0.009468910284340382;0.9448127150535583
1500;-0.10537531971931458;-0.13418325613924034;0.016264140605926514;0.014907643916208184;0.13334524631500244;0.01699548028409481;0.9599218368530273
1600;-0.10864034295082092;-0.12671906945453743;0.017350617796182632;0.021895635446959806;0.11904094368219376;0.02913510985672474;0.9672328233718872
1700;-0.11104736477136612;-0.13045840343205295;0.01838216558098793;0.02020092932859181;0.13407258689403534;0.018695026636123657;0.9509051442146301
1800;-0.11401347815990448;-0.12884759507795465;0.019010983407497406;0.019087809568230127;0.12704166769981384;0.018209444358944893;0.9645521640777588
1900;-0.11660539358854294;-0.12789230044930666;0.019266322255134583;0.018691680410119472;0.12679921090602875;0.01845223642885685;0.958459734916687
2000;-0.1181308701634407;-0.125958058875523;0.020014364272356033;0.017649632034453286;0.12388986349105835;0.016752686351537704;0.955535352230072
2100;-0.11979595571756363;-0.1300358976172304;0.020275089889764786;0.019881701582243252;0.13407258689403534;0.022336916998028755;0.9647958278656006
2200;-0.12216441333293915;-0.13261586226339184;0.02074572443962097;0.01713899447373083;0.13504236936569214;0.01456755492836237;0.9660142660140991
2300;-0.12365588545799255;-0.12765533345084878;0.02077033370733261;0.01748432720923116;0.12243518978357315;0.017966650426387787;0.9550479650497437
2400;-0.12452586740255356;-0.12332198164115846;0.021621786057949066;0.019807202385509762;0.11879849433898926;0.022336916998028755;0.9426194429397583
2500;-0.1256127506494522;-0.1258361610539106;0.022583382204174995;0.026712023553044736;0.12825389206409454;0.033748168498277664;0.9599218368530273
2600;-0.1264600306749344;-0.1074028126694063;0.023069078102707863;0.025148245979421294;0.08873520791530609;0.02355087921023369;0.9569975137710571
2700;-0.12282094359397888;-0.08618051539418933;0.023554841056466103;0.02038456384095173;0.06473305821418762;0.015538725070655346;0.9618715047836304
2800;-0.11684130132198334;-0.06300850483299097;0.02387031726539135;0.01826267223993254;0.03976112976670265;0.016024310141801834;0.9806361198425293
2900;-0.11215195059776306;-0.06449178173875618;0.023907765746116638;0.022089465501906148;0.06594529002904892;0.025978805497288704;0.9699134826660156
3000;-0.10796640068292618;-0.052585972034137;0.023814674466848373;0.01961356525750673;0.04073091223835945;0.017238274216651917;10.108.546.018.600.400
3100;-0.10364611446857452;-0.0552702729502932;0.022615885362029076;0.012647141761128272;0.05794457346200943;0.005827021785080433;0.9818546175956726
3200;-0.10021378099918365;-0.05350655343496596;0.021882709115743637;0.009105489464590366;0.05164097994565964;0.005827021785080433;0.9640647172927856
3300;-0.0985947698354721;-0.05900006507249224;0.02172756753861904;0.016115365128909032;0.06449060887098312;0.02330808714032173;0.9718630313873291
3400;-0.09657803922891617;-0.0626489047390317;0.021458130329847336;0.011040875369941408;0.06643018126487732;0.006069814320653677;0.9859974384307861
3500;-0.0950883999466896;-0.07406411487486907;0.018115390092134476;0.009717840035256123;0.0855834111571312;0.008497740142047405;0.982342004776001
3600;-0.09467866271734238;-0.07757919944739516;0.01637178286910057;0.00395483808229849;0.081219382584095;-0.0016885813092812896;0.9886780977249146
3700;-0.0942039042711258;-0.07783354363477148;0.015443017706274986;0.00047471873458801135;0.078310027718544;-0.002894710749387741;0.8746280074119568
3800;-0.09427794814109802;-0.08821658071948085;0.014498847536742687;0.0023929894382946973;0.09867548942565918;0.004370266571640968;0.9582160115242004
3900;-0.09479610621929169;-0.08468308160903527;0.01517046894878149;0.004067190406625119;0.081219382584095;0.005827021785080433;0.9862411618232727
4000;-0.09576069563627243;-0.09234455846093481;0.014837057329714298;0.000683404395813594;0.10013016313314438;-0.002653484931215644;0.9762495756149292
4100;-0.0959387943148613;-0.09883113359925257;0.015166234225034714;0.007004139747355998;0.10546397417783737;0.013353591784834862;0.9577286243438721
4200;-0.09746485203504562;-0.09794328007569969;0.015426183119416237;0.01583827035289928;0.09722080826759338;0.02476484328508377;0.982342004776001
4300;-0.09850652515888214;-0.10768417469716703;0.015937617048621178;0.010543498242483153;0.11758626997470856;0.005341436713933945;0.9923335909843445
4400;-0.1010705754160881;-0.12461322655883048;0.01658404991030693;0.01981132561245115;0.14158840477466583;0.02913510985672474;0.9686949253082275
4500;-0.1065990999341011;-0.14078331242416164;0.018075499683618546;0.02938432788248175;0.15710493922233582;0.03908960521221161;0.9813672304153442
4600;-0.11391088366508484;-0.17043309246986268;0.020902467891573906;0.03782471872700693;0.20026032626628876;0.046373382210731506;0.903627872467041
4700;-0.1238173395395279;-0.1933993474850062;0.02557465247809887;0.04437417949233974;0.21650420129299164;0.05098643898963928;0.9336026310920715
4800;-0.13162876665592194;-0.19120098175940745;0.02875366061925888;0.052624939265364025;0.18910782039165497;0.060698140412569046;0.9311656951904297
4900;-0.13731910288333893;-0.18437308119306728;0.0314643569290638;0.05320110991433226;0.17795529961585999;0.053657159209251404;0.9457874298095703
5000;-0.13860440254211426;-0.15054238729208388;0.03168165683746338;0.03752618768310631;0.11734382063150406;0.021608538925647736;0.9855100512504578
5100;-0.13691866397857666;-0.13042060035107406;0.030745046213269234;0.03024583944141849;0.11055533587932587;0.02282250113785267;0.9647958278656006
5200;-0.1368498057126999;-0.13865144555732603;0.029675466939806938;0.0372763741489327;0.14692223072052002;0.044431041926145554;0.9711319208145142
5300;-0.14116309583187103;-0.17918552513819758;0.03214395418763161;0.04243916301750407;0.21965600550174713;0.04783013463020325;0.9640647172927856
5400;-0.14891564846038818;-0.17521946496475807;0.035368286073207855;0.04901056406521062;0.1711668223142624;0.05559949949383736;0.921417772769928
5500;-0.1559731811285019;-0.20402994865500457;0.03870213404297829;0.06334440677784817;0.23299053311347961;0.0776936262845993;0.9392076730728149
5600;-0.16571657359600067;-0.24936476273949665;0.0397302471101284;0.06762769157587846;0.29481422901153564;0.0721093937754631;0.9655268788337708
5700;-0.17662301659584045;-0.27603381563596985;0.04422461986541748;0.08572028782457197;0.30257248878479004;0.10415801405906677;0.9501740336418152
5800;-0.18931147456169128;-0.29699894396471255;0.04904666170477867;0.08402338416779147;0.3178465962409973;0.082792267203331;0.9063085317611694
5900;-0.19836199283599854;-0.25083773973273593;0.049576789140701294;0.0615507035009951;0.20510925352573395;0.03933239355683327;0.9820983409881592
6000;-0.19324104487895966;-0.1518995969866902;0.046520885080099106;0.04972764882755529;0.053580544888973236;0.03763284906744957;0.9601655602455139
6100;-0.18117313086986542;-0.10652202144541459;0.042057231068611145;0.029404831793798575;0.061338815838098526;0.008740533143281937;0.9545605182647705
6200;-0.17280493676662445;-0.1290070506899705;0.03930053114891052;0.028236920558020115;0.15128624439239502;0.027192767709493637;10.347.368.717.193.600
6300;-0.17203588783740997;-0.15088497344882656;0.0376126766204834;0.01602457909140537;0.172621488571167;0.004127473570406437;0.9818546175956726
6400;-0.1730937510728836;-0.15625583523816575;0.035485100001096725;0.021012450705977175;0.1614689826965332;0.02622159756720066;0.9801487326622009
6500;-0.1719701886177063;-0.14505675809939733;0.03534833341836929;0.03460546855169698;0.13383014500141144;0.04831572249531746;0.967476487159729
6600;-0.16910435259342194;-0.1372195618669532;0.03559429571032524;0.03193253891754001;0.12946611642837524;0.029377900063991547;0.9574849009513855
6700;-0.16630703210830688;-0.13656421668220325;0.03491855412721634;0.022368636274572397;0.13601216673851013;0.012868006713688374;0.9114262461662292
6800;-0.1654246747493744;-0.14452438099674464;0.03306998685002327;0.019645225587436577;0.15249848365783691;0.017238274216651917;0.9657706022262573
6900;-0.1649940013885498;-0.14683028087622876;0.03145661950111389;0.021885785720560727;0.14910423755645752;0.024279257282614708;0.9850226640701294
7000;-0.1675465703010559;-0.19967693323996405;0.03015027940273285;0.022033793200924662;0.252386212348938;0.022336916998028755;0.9906277060508728
7100;-0.17427730560302734;-0.223900265753278;0.030958596616983414;0.04081935595842731;0.2480221688747406;0.059969767928123474;0.9808798432350159
7200;-0.18164362013339996;-0.25146235782136056;0.031470488756895065;0.023784351230048545;0.27881279587745667;0.007040984462946653;0.9455438256263733
7300;-0.18999381363391876;-0.25871475427478463;0.03026771917939186;0.020410993489819937;0.26596319675445557;0.017238274216651917;0.9587033987045288
7400;-0.19807292520999908;-0.2708484553599096;0.028182875365018845;0.011124285940457574;0.28317680954933167;0.0019423406338319182;0.906552255153656
7500;-0.20425628125667572;-0.26342221261649446;0.02495240420103073;-0.0021456769858530147;0.2562653124332428;-0.015438457019627094;0.9282413125038147
7600;-0.20774468779563904;-0.25055335464158685;0.021621881052851677;-0.005825318882448815;0.2378394454717636;-0.009649035520851612;0.941400945186615
7700;-0.21108169853687286;-0.24554070144864912;0.0178584773093462;-0.012200655286895339;0.2407488077878952;-0.018815619871020317;0.9401824474334717
7800;-0.21433810889720917;-0.25577315217781443;0.013645456172525883;-0.032551332851604865;0.2662056088447571;-0.053069695830345154;0.9457874298095703
7900;-0.2183810919523239;-0.25804327057325016;0.00875941663980484;-0.04006031245293172;0.2603869140148163;-0.04776272922754288;0.956266462802887
8000;-0.22300061583518982;-0.2708128473940487;0.004564746282994747;-0.04648008621809906;0.28366172313690186;-0.053069695830345154;0.9706445932388306
8100;-0.22842155396938324;-0.28549079312434456;-0.0008411559392698109;-0.05509278408021366;0.30039048194885254;-0.0639248639345169;0.9426194429397583
8200;-0.2347649484872818;-0.29171291145179945;-0.0062913475558161736;-0.07535414639609961;0.29820847511291504;-0.09600790590047836;0.9182497262954712
8300;-0.2408876121044159;-0.2930747942028855;-0.013559180311858654;-0.09342725761472191;0.29481422901153564;-0.11217004060745239;0.9077707529067993
8400;-0.24667930603027344;-0.28521597737890486;-0.02201237715780735;-0.07860988548043424;0.27784299850463867;-0.06488976627588272;0.9803923964500427
8500;-0.24977116286754608;-0.2723690385934895;-0.029550857841968536;-0.10340448829440713;0.2599020302295685;-0.12953831255435944;0.9572411775588989
8600;-0.2501954734325409;-0.2609096961806906;-0.03553337603807449;-0.10631898909378174;0.2492343932390213;-0.11048145592212677;0.9920898675918579
8700;-0.25143682956695557;-0.2527884677736887;-0.03744279965758324;-0.09738179107909727;0.2439005970954895;-0.08949480205774307;0.9450563788414001
8800;-0.2532064914703369;-0.2474163389791877;-0.03572164475917816;-0.08119036277777036;0.241233691573143;-0.06585466861724854;0.9245858788490295
8900;-0.25590580701828003;-0.24153034394996264;-0.032033517956733704;-0.05331221662742776;0.23517253994941711;-0.026293622329831123;0.9557790756225586
9000;-0.2573641836643219;-0.24204293532881638;-0.026497865095734596;-0.030406729201384833;0.2426883578300476;-0.00844290666282177;0.9650395512580872
9100;-0.25770464539527893;-0.23373772751292454;-0.022272497415542603;-0.022541306928595864;0.22595958411693573;-0.015679681673645973;0.955535352230072
9200;-0.25659114122390747;-0.21731264261780048;-0.019968925043940544;-0.026943566501589238;0.20147255063056946;-0.03232427313923836;0.9626024961471558
9300;-0.2535599172115326;-0.2037924025442422;-0.019075358286499977;-0.028728757222782023;0.19080494344234467;-0.031359363347291946;0.9630899429321289
9400;-0.250238299369812;-0.20087612132317142;-0.017574071884155273;-0.028007112029547043;0.19807831943035126;-0.027982203289866447;0.9657706022262573
9500;-0.24833962321281433;-0.2039891830577747;-0.013253928162157536;-0.0009692978373094692;0.20680637657642365;0.02549321949481964;0.9543168544769287
9600;-0.2465599626302719;-0.2094871923684466;-0.005144105292856693;0.0578849467664882;0.21432217955589294;0.116297647356987;0.9579722881317139
9700;-0.24491657316684723;-0.21489948217390253;0.007566958665847778;0.07690231982284845;0.21989844739437103;0.09541748464107513;0.9496866464614868
9800;-0.24349746108055115;-0.22733758877910792;0.019814418628811836;0.11270350534248584;0.2397790104150772;0.1481034755706787;0.8777960538864136
9900;-0.24356885254383087;-0.2356128306859978;0.03077596239745617;0.11389935659669845;0.2441430240869522;0.11484088748693466;0.9379891753196716
10000;-0.2430022805929184;-0.23746241518655223;0.03651982173323631;0.09264471038920737;0.2395365685224533;0.07113822549581528;0.9569975137710571
10100;-0.24398083984851837;-0.23526151212036;0.03872539848089218;0.06587923452683833;0.23299053311347961;0.03908960521221161;0.9474933743476868
10200;-0.24467457830905914;-0.23885473627696616;0.03999027609825134;0.06614000854650955;0.2419610172510147;0.0665251612663269;0.9755184650421143
10300;-0.24457603693008423;-0.24472544371396454;0.04542553797364235;0.07411566434865663;0.2494768351316452;0.08230668306350708;0.935552179813385
10400;-0.24355383217334747;-0.2383568964163759;0.052245743572711945;0.10283621908316516;0.23080852627754211;0.13159357011318207;0.9443252682685852
10500;-0.24178719520568848;-0.22178026904690074;0.061877112835645676;0.1346564941306472;0.20389701426029205;0.16655570268630981;0.8982665538787842
10600;-0.23851220309734344;-0.21854379721899772;0.07179797440767288;0.15697888493122258;0.21432217955589294;0.1794237196445465;0.9511488080024719
10700;-0.23467028141021729;-0.21174525526811178;0.08171100169420242;0.16700849954044825;0.20413947105407715;0.17748136818408966;0.9528546929359436
10800;-0.2318497896194458;-0.21045998600924223;0.0859663337469101;0.1476551173599837;0.20850348472595215;0.12892286479473114;0.9850226640701294
10900;-0.2295401394367218;-0.19581224760949328;0.08657289296388626;0.12060255305656686;0.1803797483444214;0.09420351684093475;0.952610969543457
11000;-0.22805649042129517;-0.1860098097378832;0.08671202510595322;0.1286112620462693;0.1755308359861374;0.13717781007289886;0.969669759273529
11100;-0.22445715963840485;-0.1813085139325839;0.08941103518009186;0.13672262904243399;0.17577329277992249;0.1454327553510666;0.9894092082977295
11200;-0.22092610597610474;-0.17509868608600831;0.09249713271856308;0.13544730640295902;0.167772576212883;0.1347498744726181;0.9643084406852722
11300;-0.21795573830604553;-0.1750024076485145;0.09581321477890015;0.14277529960689755;0.17359128594398499;0.15077418088912964;0.9945268034934998
11400;-0.21523575484752655;-0.16213196400216193;0.09996282309293747;0.15674939077851077;0.14813445508480072;0.17141155898571014;0.9431067705154419
11500;-0.21156522631645203;-0.15345370894923027;0.10465361922979355;0.16471388596718245;0.14377044141292572;0.17311111092567444;0.9318967461585999
11600;-0.20487241446971893;-0.12738837018391477;0.10742509365081787;0.16131535086740806;0.10037261247634888;0.15805795788764954;0.9499303102493286
11700;-0.1964428424835205;-0.10002123622772639;0.10848742723464966;0.14657523026935088;0.07176399230957031;0.13183635473251343;0.9569975137710571
11800;-0.18651196360588074;-0.07989074437627203;0.10686015337705612;0.12743253994232154;0.05867191031575203;0.10828548669815063;0.9750310778617859
11900;-0.1759808212518692;-0.052293417982283014;0.10646866261959076;0.1133205770760199;0.023517252877354622;0.09905937314033508;0.9772243499755859
12000;-0.16389714181423187;-0.03687172838639725;0.10659109055995941;0.11655971685831515;0.020365456119179726;0.11945395171642303;0.9891654849052429
12100;-0.15225286781787872;-0.028458722955775975;0.10720112919807434;0.11698694293616521;0.019153228029608727;0.11702601611614227;0.9857537150382996
12200;-0.14224235713481903;-0.011125977305665145;0.10814809799194336;0.11773472889947043;-0.0069113983772695065;0.11823998391628265;0.9820983409881592
12300;-0.13056476414203644;-0.005120145175312044;0.10869618505239487;0.10959547025808844;-0.0014810138382017612;0.1012445017695427;1.053.257.703.781.120
12400;-0.12054610252380371;0.0016070185104950126;0.10751941800117493;0.10853516975204781;-0.008639248088002205;0.10707152634859085;10.042.747.259.140.000
12500;-0.11022230237722397;0.001954441208331701;0.10629326105117798;0.09563471389086728;-0.002715192036703229;0.08230668306350708;0.9760059118270874
12600;-0.10065843909978867;0.003730953102404922;0.10314205288887024;0.07278468587128992;-0.005924055352807045;0.04952968657016754;0.9745436906814575
12700;-0.09109068661928177;0.010714065783315182;0.09951472282409668;0.05776574700520311;-0.01826583780348301;0.0424887016415596;0.9728378057479858
12800;-0.08145663142204285;0.021359091103062215;0.09657923132181168;0.050967865926813356;-0.03258230537176132;0.04394545406103134;0.994283139705658
12900;-0.0719672217965126;0.033732536918660724;0.09448548406362534;0.051893638919014634;-0.0466519370675087;0.05244319513440132;0.9760059118270874
13000;-0.06244372949004173;0.037803602964910685;0.09257881343364716;0.04481764550048161;-0.042208895087242126;0.037390053272247314;0.9955016374588013
13100;-0.05384145677089691;0.04171127393742691;0.08899711817502975;0.04279809019247237;-0.04566459357738495;0.04054636135697365;0.9967200756072998
13200;-0.04509934410452843;0.04412929704474916;0.08489104360342026;0.025425274745299327;-0.04640510305762291;0.008012155070900917;0.9372580647468567
13300;-0.03637409582734108;0.06203952618669346;0.07943719625473022;0.01417710009653559;-0.0797279104590416;0.0029135108925402164;0.9411572217941284
13400;-0.02597125805914402;0.07826474471748865;0.07455109804868698;0.007815347626967879;-0.09429121762514114;0.0014567554462701082;0.9891654849052429
13500;-0.01634318195283413;0.07247033438837551;0.06837509572505951;0.004768831485326001;-0.06664562970399857;0.0019423406338319182;0.9833167791366577
13600;-0.010884626768529415;0.05798328223423629;0.06316886842250824;0.0069303764197662645;-0.04344307258725166;0.009468910284340382;0.9923335909843445
13700;-0.0076797399669885635;0.044403665681150714;0.05930226668715477;0.006085292759142208;-0.03085445426404476;0.005584229249507189;0.9974511861801147
13800;-0.004784713964909315;0.03864069966021566;0.056246038526296616;0.008282512784715854;-0.03282913938164711;0.01068287342786789;0.9745436906814575
13900;-0.00045474249054677784;0.051940947497049084;0.05420294031500816;0.01665244953772623;-0.06516461074352264;0.025007635354995728;0.9677202105522156
14000;0.004393576644361019;0.06067052876802627;0.05168212205171585;0.030692275069009334;-0.06911398470401764;0.04491662606596947;10.145.100.355.148.300
14100;0.008543235249817371;0.048661849639995;0.049411121755838394;0.03134526060529853;-0.03628484159708023;0.032291412353515625;1.015.241.026.878.350
14200;0.010938046500086784;0.041332769615081755;0.04742869362235069;0.029137446851019298;-0.03381648287177086;0.027192767709493637;0.9679639339447021
14300;0.0120962243527174;0.04368039335718325;0.04631445184350014;0.033071515609609366;-0.04591142758727074;0.03714726120233536;0.9706445932388306
14400;0.013176909647881985;0.009078283909933677;0.04571974277496338;0.0306631400569443;0.02569926716387272;0.028649523854255676;0.8409978151321411
14500;0.0049544572830200195;-0.09727044248650535;0.044060319662094116;0.015845361890344883;0.20389701426029205;0.0016995479818433523;0.9877033233642578
14600;-0.01424278225749731;-0.15574165859997302;0.04119383543729782;0.02000218492788665;0.21432217955589294;0.024522049352526665;0.9540731310844421
14700;-0.03002854622900486;-0.13752148788091187;0.03900313377380371;0.02754144406373056;0.11952584236860275;0.03496213257312775;0.9918461441993713
14800;-0.03524857386946678;-0.10635947496669128;0.037867747247219086;0.034188974336299915;0.07540068030357361;0.04054636135697365;0.9340900778770447
14900;-0.03853066265583038;-0.11180800846486272;0.03758766129612923;0.028899470405368756;0.11758626997470856;0.02330808714032173;0.9791739583015442
15000;-0.04541660472750664;-0.1285976271472754;0.035320430994033813;0.020840449053124634;0.14570999145507812;0.012625213712453842;0.9855100512504578
15100;-0.053819023072719574;-0.13623146845133036;0.032176755368709564;0.031349209936417974;0.14401286840438843;0.04176032170653343;0.9908714294433594
15200;-0.06051158905029297;-0.1409004243749351;0.03128613904118538;0.017848213808022352;0.14570999145507812;0.004127473570406437;0.9630899429321289
15300;-0.06661165505647659;-0.1437953726962574;0.03094598837196827;0.024362535112975193;0.14667977392673492;0.03059186413884163;0.9767369627952576
15400;-0.07214637100696564;-0.1333864938617662;0.030364781618118286;0.02087871633243238;0.12316253036260605;0.017238274216651917;0.9762495756149292
15500;-0.07607138901948929;-0.10932330905721205;0.02998737245798111;0.02592761313323961;0.0853409618139267;0.030834658071398735;0.990384042263031
15600;-0.07150808721780777;-0.054158516999688086;0.030884357169270515;0.021179029687542542;-0.0009873425588011742;0.016024310141801834;0.9465185403823853
15700;-0.06594999134540558;-0.03197254884004564;0.03072071261703968;0.019706125605619254;0.009697836823761463;0.017966650426387787;0.9421320557594299
15800;-0.05848342925310135;0.011708299512528643;0.034159399569034576;0.020617793499603795;-0.05529118701815605;0.02136574685573578;10.074.427.127.838.100
15900;-0.04987276345491409;0.028993118867929837;0.033526770770549774;0.04055928733442151;-0.04615826532244682;0.06045534834265709;10.439.972.877.502.400
16000;-0.04177042096853256;0.03843853929649324;0.03294176235795021;0.022463358014493607;-0.047886114567518234;0.004370266571640968;0.9716193079948425
16100;-0.03469643369317055;0.04748403034838296;0.03272996097803116;0.04162909286138948;-0.0562785267829895;0.0609409362077713;10.130.478.143.692.000
16200;-0.028512801975011826;0.046721626214933594;0.033705636858940125;0.03601819787658571;-0.04591142758727074;0.03059186413884163;0.9706445932388306
16300;-0.022703850641846657;0.05644482395888059;0.033154889941215515;0.022564332518525305;-0.0659051164984703;0.009226118214428425;0.9655268788337708
16400;-0.016600744798779488;0.05235987567323434;0.033518463373184204;0.03357352978907262;-0.04813295230269432;0.04467383399605751;0.9930647015571594
16500;-0.010957550257444382;0.04834412371807177;0.03482268750667572;0.050492785968455224;-0.044183582067489624;0.06749633699655533;0.9877033233642578
16600;-0.0053580994717776775;0.05380676211848559;0.03770546242594719;0.05299301176319289;-0.05924055725336075;0.05559949949383736;0.974299967288971
16700;-0.001114193582907319;0.05433853151486874;0.0379670150578022;0.05871574648896904;-0.05479751527309418;0.06458282470703125;10.035.436.153.411.800
16800;0.0033150510862469673;0.04836233465185862;0.03996595740318298;0.06341801240723818;-0.04245573282241821;0.0682247132062912;0.9372580647468567
16900;0.0062482221983373165;0.03812794331130619;0.041795000433921814;0.062331510087675165;-0.027645593509078026;0.061426520347595215;0.9777117371559143
17000;0.006894203368574381;0.01858728137853914;0.04171808809041977;0.04863245895376044;0.001212229602970183;0.035204920917749405;0.9699134826660156
17100;0.004750698339194059;-0.0002965044011920791;0.04005777835845947;0.038285117744982125;0.019395673647522926;0.028163937851786613;0.9872159361839294
17200;0.0019372098613530397;-0.013211247855949492;0.03805018216371536;0.026458417920857326;0.02618415839970112;0.014810346998274326;0.9760059118270874
17300;-0.0012058805441483855;-0.023415412396379624;0.036275383085012436;0.020920851464186815;0.03369998186826706;0.015538725070655346;0.9889218211174011
17400;-0.005369109101593494;-0.043361929258661336;0.034936584532260895;0.02662280278090868;0.06352083384990692;0.03253420814871788;10.013.504.028.320.300
17500;-0.010045688599348068;-0.0485025883200147;0.03398881107568741;0.026970900116866637;0.053822994232177734;0.027435559779405594;0.9628462195396423
17600;-0.013064549304544926;-0.03847714249566239;0.0325288288295269;0.014261643497198396;0.028366170823574066;0.0016995479818433523;0.9318967461585999
17700;-0.015912899747490883;-0.047843970633000575;0.030680885538458824;0.011409695065516184;0.05697479099035263;0.008740533143281937;0.9618715047836304
17800;-0.020489711314439774;-0.06546667675375428;0.03046448528766632;0.014501007046943267;0.0826740637421608;0.017481066286563873;0.9898965954780579
17900;-0.025266604498028755;-0.07631893748692652;0.03053285740315914;0.018103197343743747;0.08679564297199249;0.021608538925647736;10.013.504.028.320.300
18000;-0.029855458065867424;-0.07782520664180345;0.03138033300638199;0.025482229122296418;0.0792798176407814;0.033019788563251495;0.9859974384307861
18100;-0.03495686873793602;-0.0901448329748334;0.03271626681089401;0.025487283333617185;0.10255462676286697;0.025736013427376747;0.9621151685714722
18200;-0.04080573096871376;-0.09018820459811042;0.03181585669517517;0.02993485090731164;0.09043233096599579;0.03447654843330383;0.9791739583015442
18300;-0.045647937804460526;-0.09681975475972178;0.03036653622984886;0.0135750195966889;0.10352440178394318;-0.002653484931215644;0.9747873544692993
18400;-0.05047539249062538;-0.10201734680957342;0.028922872617840767;0.015439882154789307;0.10716108977794647;0.017481066286563873;0.9623588919639587
18500;-0.05603199079632759;-0.11092788401188006;0.028573961928486824;0.01965719111643443;0.11976828426122665;0.023793673142790794;0.9621151685714722
18600;-0.060860004276037216;-0.11202073307009867;0.02904593013226986;0.024718126919225862;0.11297979205846786;0.029620693996548653;0.991358757019043
18700;-0.0652337521314621;-0.11419016935120224;0.029010197147727013;0.02597373103458773;0.11613159626722336;0.027192767709493637;0.972594141960144
18800;-0.06984212249517441;-0.1238714050682082;0.029882434755563736;0.035237222894761104;0.13334524631500244;0.044431041926145554;0.9752748012542725
18900;-0.07429780066013336;-0.1285406555022065;0.03130074590444565;0.04232378350433057;0.13310280442237854;0.049286894500255585;0.9708882570266724
19000;-0.07775917649269104;-0.1254563359402176;0.03136599436402321;0.029255668916843523;0.12243518978357315;0.016024310141801834;0.9803923964500427
19100;-0.08078297227621078;-0.12241503093717115;0.02940927818417549;0.013522560098137945;0.11952584236860275;-0.002412258880212903;0.987459659576416
19200;-0.08295527845621109;-0.12631150704252975;0.026570826768875122;0.006449311163158182;0.13019345700740814;-0.0007236776873469353;0.9998881816864014
19300;-0.08539722859859467;-0.1314580340881425;0.02504132315516472;0.0074015493861771696;0.13649705052375793;0.008497740142047405;0.9774680733680725
19400;-0.08984843641519547;-0.1298461262612835;0.024178940802812576;0.011756683110029087;0.12825389206409454;0.01626710407435894;0.9501740336418152
19500;-0.0942799374461174;-0.14460006267677333;0.023291772231459618;0.003391810434647138;0.1592869758605957;-0.005065743811428547;0.956266462802887
19600;-0.0998041108250618;-0.1538824720367385;0.021531401202082634;-0.0061782365319241715;0.1626812070608139;-0.015920909121632576;0.9859974384307861
19700;-0.10451161861419678;-0.15436759039024694;0.02078961208462715;-0.003830561737951303;0.15468049049377441;-0.0016885813092812896;0.9543168544769287
19800;-0.10872586816549301;-0.16279924668789972;0.02119242399930954;0.006546001641284585;0.1711668223142624;0.016752686351537704;0.9518798589706421
19900;-0.11390883475542068;-0.16543441733146613;0.019021684303879738;0.0026075232858130994;0.1682574599981308;-0.0014473553746938705;0.9521235823631287
20000;-0.11833036690950394;-0.15945366025195432;0.0161918792873621;-0.003212046079268633;0.1537107229232788;-0.009166584350168705;0.9621151685714722
20100;-0.12096250802278519;-0.15797750794967136;0.01294706854969263;-0.004746815962306965;0.156620055437088;-0.0065130991861224174;0.941400945186615
20200;-0.12421538680791855;-0.15602882625504924;0.011225941590964794;0.002359398901107925;0.1541956067085266;0.009226118214428425;0.9686949253082275
20300;-0.12701506912708282;-0.15788652145004556;0.010896468535065651;0.012863943454553724;0.1597718596458435;0.02330808714032173;0.9862411618232727
20400;-0.12671254575252533;-0.14165901423874405;0.0121174780651927;0.02426699079749114;0.12534454464912415;0.03544771298766136;10.505.770.444.869.900
20500;-0.12548847496509552;-0.12486800116296873;0.015569714829325676;0.031197640769598335;0.10788843780755997;0.037875641137361526;0.9701571464538574
20600;-0.12398814409971237;-0.11707138291352896;0.01911500282585621;0.041485749169845015;0.10934310406446457;0.05171481892466545;0.9606529474258423
20700;-0.12328372895717621;-0.11366537222868103;0.02263500727713108;0.05535299303180646;0.11055533587932587;0.06943868100643158;0.968207597732544
20800;-0.12395431846380234;-0.1084527159301576;0.02531343884766102;0.04623279645985462;0.10352440178394318;0.03714726120233536;0.9321404099464417
20900;-0.1246524229645729;-0.11257497112547807;0.024244215339422226;0.029131380863276823;0.11710137128829956;0.011896836571395397;0.9601655602455139
21000;-0.12372010946273804;-0.11227759183806119;0.02187792956829071;0.020455453337113294;0.11225245893001556;0.011654043570160866;0.9867285490036011
21100;-0.12235169112682343;-0.1102839932458633;0.020224468782544136;0.019076749272149137;0.10837332904338837;0.01772385649383068;0.9657706022262573
21200;-0.12126375734806061;-0.10968886359082085;0.019937066361308098;0.020927586509569676;0.10934310406446457;0.02282250113785267;0.9550479650497437
21300;-0.12099966406822205;-0.11435457837534277;0.020575910806655884;0.027300559596533776;0.11928339302539825;0.033748168498277664;0.9830730557441711
21400;-0.12163005024194717;-0.10813304513624743;0.020307328552007675;0.021947228686100263;0.10206973552703857;0.016752686351537704;0.9894092082977295
21500;-0.12131931632757187;-0.10289264794824124;0.018734486773610115;0.011208813906699708;0.09746325761079788;0.0007283777231350541;0.9838041663169861
21600;-0.12085399031639099;-0.10167696674859175;0.018121235072612762;0.018215982391289045;0.10013016313314438;0.02549321949481964;0.9647958278656006
21700;-0.12076140940189362;-0.104727260359619;0.020317310467362404;0.018416920346874963;0.10740353912115097;0.018695026636123657;0.9401824474334717
21800;-0.12030583620071411;-0.09594140029056117;0.02179466187953949;0.010686756453154873;0.08679564297199249;0.0031563034281134605;0.9755184650421143
21900;-0.1195301041007042;-0.10670555160913622;0.02213861234486103;0.017189393990561432;0.11734382063150406;0.02403646521270275;0.9767369627952576
22000;-0.12052421271800995;-0.11370491319130481;0.0236364658921957;0.024893412574364907;0.12098050862550735;0.03277700021862984;0.9453001022338867
22100;-0.12113524228334427;-0.11145663830582347;0.02434559352695942;0.027513993716831584;0.10958555340766907;0.030349070206284523;0.9516361951828003
22200;-0.12104988843202591;-0.11658018274380236;0.022262893617153168;0.01685915173832709;0.12195029854774475;0.006555399391800165;0.9545605182647705
22300;-0.12236735969781876;-0.12570361875488495;0.020771868526935577;0.011193733014763781;0.13504236936569214;0.005584229249507189;0.9801487326622009
22400;-0.12238863110542297;-0.14121410111075935;0.018791981041431427;0.004245606528681497;0.156620055437088;-0.002653484931215644;0.9613840579986572
22500;-0.12714028358459473;-0.16800064894903394;0.018055258318781853;0.02045218971480543;0.19516897201538086;0.0369044728577137;0.9448127150535583
22600;-0.13417232036590576;-0.1806167273390528;0.01850782334804535;0.015650681960755856;0.19347184896469116;0.011168458499014378;0.9818546175956726
22700;-0.1408163458108902;-0.19762440573356777;0.017296699807047844;0.009947614369464201;0.21553441882133484;0.004613059107214212;0.9604092836380005
22800;-0.14862164855003357;-0.21678532534626885;0.013696892186999321;-0.009772755153579253;0.23638476431369781;-0.02894710749387741;0.9443252682685852
22900;-0.1586383730173111;-0.22595653089848722;0.009538345038890839;-0.011906491031212385;0.2356574386358261;-0.013991101644933224;0.9494429230690002
23000;-0.16507422924041748;-0.22463665266014224;0.005958521272987127;-0.01835274982468168;0.22329269349575043;-0.025087492540478706;0.924342155456543
23100;-0.17063626646995544;-0.23611987891982655;0.002804249059408903;-0.03180546952791126;0.2475372701883316;-0.04535046964883804;0.9465185403823853
23200;-0.17760688066482544;-0.23422978873492561;0.000870463321916759;-0.01856155877700976;0.23202073574066162;-0.005306969862431288;0.9969637989997864
23300;-0.18357591331005096;-0.2421193990191786;0.0016801637830212712;-0.0037022390241305964;0.2499617338180542;0.011168458499014378;0.9701571464538574
23400;-0.18733268976211548;-0.2094892498271957;0.003605888457968831;0.00856354591045787;0.17698551714420319;0.02063736878335476;0.9465185403823853
23500;-0.18525926768779755;-0.1728032664189479;0.005701690446585417;0.014434514864871958;0.13601216673851013;0.020151784643530846;0.950417697429657
23600;-0.1822817176580429;-0.14996274180352287;0.007347763981670141;0.016946605496507065;0.12704166769981384;0.019423406571149826;0.9440816044807434
23700;-0.17968790233135223;-0.14152320642716468;0.008734463714063168;0.016365452610912816;0.13286036252975464;0.015781516209244728;0.9477370381355286
23800;-0.17700691521167755;-0.14718052927843916;0.010412684641778469;0.02469889815267444;0.15274092555046082;0.033019788563251495;0.9840478897094727
23900;-0.175470769405365;-0.15716610733119538;0.012667130678892136;0.019684474409689554;0.1670452356338501;0.014810346998274326;0.9842915534973145
24000;-0.17550280690193176;-0.15902296477860506;0.014461367391049862;0.011916158468185601;0.1609840989112854;0.004370266571640968;0.9523673057556152
24100;-0.17832981050014496;-0.17100058781559963;0.015243969857692719;0.01579066320632267;0.18328911066055298;0.01990899071097374;0.9326278567314148
24200;-0.1811342090368271;-0.18581667092192208;0.014780336990952492;0.033047342646385994;0.20098766684532166;0.05050085484981537;0.9348210692405701
24300;-0.18550443649291992;-0.1971724253702255;0.01415134035050869;0.008136170609614753;0.20898838341236115;-0.016644585877656937;0.9608966708183289
24400;-0.1894473135471344;-0.20597430710423967;0.011287170462310314;0.0004960315247343559;0.21504953503608704;-0.006995550822466612;0.9472496509552002
24500;-0.19450059533119202;-0.21261312951625477;0.009967605583369732;-0.010474573175912737;0.21941354870796204;-0.021469103172421455;0.9530983567237854
24600;-0.19812056422233582;-0.21403980310116572;0.008753345347940922;-0.009174344962440704;0.21553441882133484;-0.007960454560816288;0.9472496509552002
24700;-0.2013961374759674;-0.21855162665332373;0.009180750697851181;-0.004500846222620274;0.22329269349575043;-0.0;0.959190845489502
24800;-0.2042616456747055;-0.2308631346710537;0.01003255881369114;0.0008055743161237148;0.2436581403017044;0.005827021785080433;0.9494429230690002
24900;-0.20819512009620667;-0.22856123154888158;0.010817887261509895;-0.004399786923739236;0.22692936658859253;-0.00989026203751564;0.9484680891036987
25000;-0.21178948879241943;-0.22453902215406868;0.009894558228552341;-0.004584810722984467;0.22135312855243683;-0.005065743811428547;0.9435941576957703
25100;-0.21485206484794617;-0.2262531524901075;0.007962572388350964;0.00060518314639305;0.22814160585403442;0.005584229249507189;0.982342004776001
25200;-0.2179034948348999;-0.2404658906073983;0.010753605514764786;0.006625136700842147;0.2548106610774994;0.012625213712453842;0.9384765625
25300;-0.22265270352363586;-0.24323649527394497;0.011251647025346756;0.017961188059189795;0.246082603931427;0.02913510985672474;0.9121572971343994
25400;-0.22749334573745728;-0.24763136934092023;0.015956858173012733;0.021047513122888887;0.2519012987613678;0.023793673142790794;0.9182497262954712
25500;-0.2324179857969284;-0.2514047158535516;0.019955167546868324;0.026803025043102023;0.2552955448627472;0.03204862028360367;0.9097203016281128
25600;-0.23614847660064697;-0.26121301618079706;0.02495386078953743;0.03614102946488083;0.27129697799682617;0.04491662606596947;0.9606529474258423
25700;-0.23999284207820892;-0.2620914816232193;0.02836034446954727;0.024536679560528712;0.2635387182235718;0.012382421642541885;0.9245858788490295
25800;-0.24390819668769836;-0.2704219471362279;0.031132420524954796;0.03023495322117943;0.27905526757240295;0.03544771298766136;0.950417697429657
25900;-0.24778637290000916;-0.2642748592926937;0.03482457995414734;0.025441688832027128;0.2584473490715027;0.020151784643530846;0.9260479807853699
26000;-0.25141826272010803;-0.2682073323241898;0.03793252632021904;0.03230775591597772;0.27250921726226807;0.038604021072387695;0.9321404099464417
26100;-0.25485023856163025;-0.27223301920992876;0.04117700457572937;0.04570666726117682;0.27663078904151917;0.058513008058071136;0.9794176816940308
26200;-0.2573745846748352;-0.2609528325748246;0.0440436527132988;0.03266182632342657;0.2502041757106781;0.018937820568680763;0.9613840579986572
26300;-0.2540951073169708;-0.21479662026859941;0.04340715706348419;0.031502817817364075;0.1697121411561966;0.029377900063991547;0.9762495756149292
26400;-0.24595235288143158;-0.1744404941419006;0.04274264723062515;0.028764135791741075;0.13479992747306824;0.025250427424907684;0.9550479650497437
26500;-0.23612740635871887;-0.14534826610852003;0.04257693886756897;0.02625816058462941;0.11661648750305176;0.02330808714032173;0.9548042416572571
26600;-0.2274816930294037;-0.13425882296681454;0.043792374432086945;0.04150530221853353;0.12340497225522995;0.056570667773485184;0.9577286243438721
26700;-0.2209736704826355;-0.13355694842716137;0.047227032482624054;0.04723715979797173;0.13358770310878754;0.052928779274225235;0.9599218368530273
26800;-0.21618060767650604;-0.12947560329554234;0.049414683133363724;0.0478136375501061;0.12631432712078094;0.04831572249531746;0.9643084406852722
26900;-0.2104005664587021;-0.1307455210874197;0.04944796487689018;0.037528175197155386;0.13261792063713074;0.02694997750222683;0.9511488080024719
27000;-0.20540592074394226;-0.13163661468498916;0.050627097487449646;0.023927753910483712;0.13286036252975464;0.00995449535548687;0.9711319208145142
27100;-0.2015979290008545;-0.14551684692097402;0.05181147903203964;0.02895610123929237;0.1597718596458435;0.03350537270307541;0.9611403942108154
27200;-0.19655412435531616;-0.13170841510901127;0.05371445044875145;0.04258408485157035;0.11758626997470856;0.05584229528903961;0.9221488833427429
27300;-0.19362276792526245;-0.16809723210176034;0.059574518352746964;0.07846596736323566;0.20510925352573395;0.11435530334711075;0.9306783080101013
27400;-0.19553115963935852;-0.20797637072218483;0.06940694898366928;0.14801459965131947;0.2499617338180542;0.21657097339630127;0.8982665538787842
27500;-0.19430825114250183;-0.19900104853769332;0.07982227951288223;0.18162157913191407;0.19395673274993896;0.2119579166173935;0.9618715047836304
27600;-0.19058482348918915;-0.24936657105432025;0.07633211463689804;0.1385980172955373;0.3040271997451782;0.09371793270111084;10.074.427.127.838.100
27700;-0.19429117441177368;-0.26575538494702033;0.06473662704229355;0.044372793489508885;0.28366172313690186;-0.05210479348897934;0.8860816955566406
27800;-0.19796131551265717;-0.26755201755762764;0.055714432150125504;0.007160215725812179;0.26911497116088867;-0.032083041965961456;0.9962327480316162
27900;-0.2025180608034134;-0.2617086636316942;0.054540637880563736;0.01947401434399052;0.2555379867553711;0.029620693996548653;0.8497709035873413
28000;-0.20409931242465973;-0.2422768480195192;0.05987243354320526;0.06806066317641807;0.22232291102409363;0.1145980954170227;0.9231236577033997
28100;-0.20134852826595306;-0.2049013432726835;0.07140039652585983;0.10900893625228807;0.1675301343202591;0.1481034755706787;0.9528546929359436
28200;-0.19328559935092926;-0.16065666997626393;0.07988095283508301;0.10654935963277923;0.11734382063150406;0.10245846956968307;0.9353085160255432
28300;-0.18475748598575592;-0.1419684038923384;0.08210249245166779;0.08558757471370824;0.12485965341329575;0.06312606483697891;0.9557790756225586
28400;-0.17769722640514374;-0.1377486920637416;0.08013582229614258;0.0682866748526052;0.13479992747306824;0.04952968657016754;0.9750310778617859
28500;-0.1708553582429886;-0.12627026508102634;0.07754392921924591;0.06368987994460959;0.11564670503139496;0.057784635573625565;0.9694260358810425
28600;-0.16396929323673248;-0.11758145099796108;0.07837978005409241;0.07115171796697188;0.10958555340766907;0.07745083421468735;0.9521235823631287
28700;-0.15860706567764282;-0.13409251654306795;0.07911786437034607;0.07543427549826984;0.15128624439239502;0.07866478711366653;0.990384042263031
28800;-0.1550002098083496;-0.1371720404158679;0.07944971323013306;0.07181006394308931;0.14061862230300903;0.06701074540615082;0.9699134826660156
28900;-0.1507999449968338;-0.14277249770596606;0.07985488325357437;0.08252195120261163;0.14886178076267242;0.09201838076114655;0.9806361198425293
29000;-0.1469857543706894;-0.14215852386436417;0.08231174200773239;0.09260019992607696;0.14207331836223602;0.10148729383945465;0.9859974384307861
29100;-0.14192204177379608;-0.13564147080160002;0.08574967831373215;0.09681362767816973;0.12995101511478424;0.09978774189949036;0.9803923964500427
29200;-0.13747228682041168;-0.12418818171603373;0.08751481771469116;0.08912209882347435;0.11346468329429626;0.08012154698371887;0.9969637989997864
29300;-0.13266021013259888;-0.12171850505253495;0.08930867910385132;0.09405896558408643;0.11976828426122665;0.09760261327028275;0.9791739583015442
29400;-0.12720291316509247;-0.10996163479061513;0.09085850417613983;0.09474325814750983;0.09891793131828308;0.0939607247710228;0.981610894203186
29500;-0.12047389149665833;-0.09291032311062276;0.09275426715612411;0.08848597633269524;0.0766129121184349;0.08084993064403534;0.9647958278656006
29600;-0.11334913969039917;-0.09236441620305541;0.09450971335172653;0.09144019061764416;0.09261434525251389;0.09323234856128693;0.9755184650421143
29700;-0.10769549757242203;-0.08504866376810934;0.0962345153093338;0.1043514627352799;0.07855246961116791;0.11605485528707504;0.9691823720932007
29800;-0.10128466784954071;-0.07872673519140302;0.10038517415523529;0.10833979722773282;0.07346111536026001;0.11119899898767471;0.9465185403823853
29900;-0.09530740976333618;-0.0773931614252241;0.10250218212604523;0.11016678684148769;0.07734024524688721;0.11095620691776276;0.9628462195396423
30000;-0.0891275629401207;-0.08242854085539811;0.10347059369087219;0.09213591159451176;0.08849275857210159;0.07308056950569153;0.9528546929359436
30100;-0.08403079211711884;-0.07724447712134258;0.10899972170591354;0.13048689795316765;0.07297622412443161;0.16801245510578156;0.952610969543457
30200;-0.08450552821159363;-0.10171804475354934;0.10891587287187576;0.12483745241088329;0.12873879075050354;0.11872556805610657;0.9711319208145142
30300;-0.08697496354579926;-0.09867979865488226;0.1055852547287941;0.11908930755384572;0.09746325761079788;0.1124129593372345;0.9711319208145142
30400;-0.08769986778497696;-0.12467816109216193;0.11297512799501419;0.09545767542441588;0.15152870118618011;0.07065263390541077;10.337.620.973.587.000
30500;-0.08913731575012207;-0.18706117452880489;0.11380750685930252;0.1594635650499878;0.2506890892982483;0.22239799797534943;0.9976949095726013
30600;-0.09499672800302505;-0.19175917917535412;0.12076695263385773;0.19055445670856763;0.19880564510822296;0.22094124555587769;1.021.089.792.251.580
30700;-0.10156123340129852;-0.19157566706577706;0.1225227490067482;0.17996220369190666;0.19492651522159576;0.16898363828659058;0.9569975137710571
30800;-0.1081291064620018;-0.18545569395648817;0.12002053111791611;0.16082417431155488;0.18207687139511108;0.14130526781082153;0.9155690670013428
30900;-0.11502620577812195;-0.19064286262194996;0.11658693104982376;0.1296641096455546;0.19807831943035126;0.0978454053401947;0.9362832903862
31000;-0.12137657403945923;-0.20209178944441594;0.11124105006456375;0.10125041633176211;0.21553441882133484;0.07186660170555115;0.9589471220970154
31100;-0.12800739705562592;-0.22018666577969498;0.10678434371948242;0.0899038863231644;0.240263894200325;0.07745083421468735;0.9828293919563293
31200;-0.13458530604839325;-0.22046223993041894;0.10472264885902405;0.11094791729020141;0.22232291102409363;0.13110800087451935;0.9574849009513855
31300;-0.1405678242444992;-0.2187077034505795;0.10692164301872253;0.12767946259295557;0.21795888245105743;0.1437332034111023;0.9260479807853699
31400;-0.14591120183467865;-0.21809588584911632;0.1099739745259285;0.12337183348771637;0.21844376623630524;0.11848277598619461;0.9063085317611694
31500;-0.15302874147891998;-0.24056482042967695;0.10991005599498749;0.11446368629250525;0.2637811601161957;0.1051291823387146;0.9336026310920715
31600;-0.1616893857717514;-0.24981978747946454;0.10906868427991867;0.10593032580525598;0.2594171464443207;0.09711702913045883;0.9669890999794006
31700;-0.16975979506969452;-0.25611272483225056;0.10913173109292984;0.09980383354647812;0.26256895065307617;0.09347514063119888;0.9643084406852722
31800;-0.17890672385692596;-0.2808395192714515;0.10851019620895386;0.09730896521627708;0.3057243227958679;0.09468910843133926;0.9699134826660156
31900;-0.18545101583003998;-0.23134683126848973;0.10582732409238815;0.0635216841828326;0.18231932818889618;0.029377900063991547;0.9396950602531433
32000;-0.18043170869350433;-0.13853430931421018;0.09930156171321869;0.06350561716924878;0.04630717262625694;0.06288327276706696;0.9494429230690002
32100;-0.1665842980146408;-0.06385499519430637;0.09427408128976822;0.06116211607375082;-0.010367097333073616;0.05827021971344948;0.9908714294433594
32200;-0.15382836759090424;-0.06507340765363516;0.0886785089969635;0.04896311195101058;0.06643018126487732;0.036418888717889786;0.9669890999794006
32300;-0.14857099950313568;-0.10047882446888168;0.08461019396781921;0.041569665031050966;0.13601216673851013;0.03423375263810158;0.9409134984016418
32400;-0.14884378015995026;-0.11701618236948726;0.08043361455202103;0.0377187165367551;0.13358770310878754;0.03399096056818962;0.9621151685714722
32500;-0.14785821735858917;-0.10823657234322706;0.07762724906206131;0.042049470407596726;0.09940282255411148;0.046373382210731506;0.9638210535049438
32600;-0.14354658126831055;-0.09159491275568575;0.0754956379532814;0.04573643815751225;0.07491578906774521;0.049286894500255585;0.9976949095726013
32700;-0.13852322101593018;-0.09022998747654923;0.0733296126127243;0.05314009463544776;0.08897764980792999;0.06045534834265709;0.9665017127990723
32800;-0.1367146074771881;-0.1381304084777989;0.07117747515439987;0.03736968995432511;0.18619845807552338;0.021608538925647736;0.9431067705154419
32900;-0.14226993918418884;-0.18212298325600676;0.06778004765510559;0.035376805382947143;0.22620204091072083;0.03350537270307541;0.9535858035087585
33000;-0.14961884915828705;-0.19570543522687162;0.06515191495418549;0.030075219163351;0.20947326719760895;0.02476484328508377;0.9528546929359436
33100;-0.15690456330776215;-0.2193398617827391;0.06101937219500542;0.026803953014615172;0.2431732565164566;0.02355087921023369;0.9557790756225586
33200;-0.16464471817016602;-0.23715529268192104;0.05765056982636452;0.0113857997674336;0.2552955448627472;-0.004100840073078871;0.9589471220970154
33300;-0.17125725746154785;-0.23377394654193995;0.05233675241470337;-0.009372381756622881;0.23080852627754211;-0.03039446286857128;0.953342080116272
33400;-0.1751309335231781;-0.21716246563082567;0.04554371535778046;-0.0207678355727284;0.20074522495269775;-0.03256549686193466;0.9392076730728149
33500;-0.1781182885169983;-0.21651287467470814;0.03991266340017319;-0.021192640088982723;0.21601930260658264;-0.02195155806839466;0.9618715047836304
33600;-0.1837402880191803;-0.23533995178868664;0.034452032297849655;-0.03298149094008711;0.2543257772922516;-0.04486801475286484;0.9813672304153442
33700;-0.189602792263031;-0.23401249702902716;0.028357472270727158;-0.05347921467643197;0.23323297500610352;-0.07429756969213486;10.057.368.278.503.400
33800;-0.19352342188358307;-0.229717046232637;0.020133234560489655;-0.07260547911727602;0.22595958411693573;-0.0921482965350151;0.9594345092773438
33900;-0.19835519790649414;-0.23844721409139924;0.011912587098777294;-0.047544973557911985;0.2477797269821167;-0.02315768599510193;0.9857537150382996
34000;-0.20449095964431763;-0.2511884322808059;0.005883272737264633;-0.07402602385416127;0.26426607370376587;-0.10131487250328064;0.9621151685714722
34100;-0.20922556519508362;-0.23710710397787677;-1,99E+11;-0.08711347837634172;0.22353513538837433;-0.10131487250328064;0.9811235070228577
34200;-0.21209600567817688;-0.21956622017004296;-0.008170678280293941;-0.10126901062014396;0.20268477499485016;-0.11675333231687546;0.9933083653450012
34300;-0.21270138025283813;-0.20573933043583673;-0.015379192307591438;-0.10397742413407612;0.19201716780662537;-0.10806920379400253;0.969669759273529
34400;-0.21220776438713074;-0.19395655272939422;-0.01999877393245697;-0.08936246014493875;0.18207687139511108;-0.07598615437746048;0.9453001022338867
34500;-0.21208013594150543;-0.18908198927663997;-0.022423261776566505;-0.08872834308981917;0.18425890803337097;-0.08901235461235046;0.9370144009590149
34600;-0.21416954696178436;-0.1867027052652115;-0.025295527651906013;-0.0960663469028931;0.18450133502483368;-0.10420958697795868;0.9608966708183289
34700;-0.21685358881950378;-0.18579892926929004;-0.027508359402418137;-0.07909788645532814;0.18547111749649048;-0.0634424090385437;0.9906277060508728
34800;-0.2169586420059204;-0.18354978513739797;-0.029822833836078644;-0.07795568672028479;0.18231932818889618;-0.07839842140674591;0.9850226640701294
34900;-0.21551764011383057;-0.17149713300490255;-0.03330625593662262;-0.07542672330060068;0.1609840989112854;-0.07429756969213486;10.013.504.028.320.300
35000;-0.21390509605407715;-0.16218273182582632;-0.03930171579122543;-0.09509026504797874;0.15395314991474152;-0.11627087742090225;0.9669890999794006
35100;-0.21171382069587708;-0.15532260275062637;-0.045750655233860016;-0.13748958426055938;0.14861935377120972;-0.18164311349391937;0.9521235823631287
35200;-0.20844906568527222;-0.15605000003798045;-0.04893280565738678;-0.10043255520509749;0.156620055437088;-0.06488976627588272;0.9314092993736267
35300;-0.20667356252670288;-0.14404101358260618;-0.05038278549909592;-0.09339908148946724;0.13261792063713074;-0.08780623227357864;0.9669890999794006
35400;-0.20389054715633392;-0.13356726131249783;-0.05212211236357689;-0.10287850482841707;0.12364742159843445;-0.11385862529277802;10.549.635.887.145.900
35500;-0.20119425654411316;-0.13317309937051336;-0.05493458732962608;-0.08622633053541043;0.13407258689403534;-0.07116164267063141;0.9789302349090576
35600;-0.19930978119373322;-0.13718985326156818;-0.058003176003694534;-0.12019785937854194;0.14304308593273163;-0.1555907130241394;10.315.687.656.402.500
35700;-0.19834278523921967;-0.13959539563583823;-0.06530189514160156;-0.12692829684598894;0.14352798461914062;-0.13508650660514832;10.108.546.018.600.400
35800;-0.19848452508449554;-0.16591991973334502;-0.07222878932952881;-0.10220891176986346;0.19371427595615387;-0.07863964140415192;0.8911994099617004
35900;-0.20513033866882324;-0.2195055760580704;-0.07074502110481262;-0.08152333340559012;0.27323654294013977;-0.06175382807850838;0.9877033233642578
36000;-0.21389441192150116;-0.2256086857413941;-0.06486967206001282;-0.05843348358266377;0.23226319253444672;-0.036907561123371124;0.9655268788337708
36100;-0.21799136698246002;-0.23228756864385547;-0.0605323389172554;-0.05988266349488444;0.2390516847372055;-0.0632011890411377;1.021.089.792.251.580
36200;-0.22062601149082184;-0.25318982770615867;-0.05296813324093819;-0.05463863570443949;0.27396389842033386;-0.051139891147613525;10.291.317.701.339.700
36300;-0.22386646270751953;-0.2520050055102856;-0.04380727931857109;-0.029598994548920923;0.2509315311908722;-0.006030647549778223;0.9540731310844421
36400;-0.22799052298069;-0.22826284535214403;-0.03619588539004326;-0.001797114864931372;0.20462435483932495;0.024522049352526665;0.9021657705307007
36500;-0.22797614336013794;-0.24207118246293144;-0.029519537463784218;0.008574083565865854;0.2560229003429413;0.017481066286563873;0.9889218211174011
36600;-0.22944863140583038;-0.2285264553438654;-0.023117197677493095;0.03491006739300043;0.21529197692871094;0.059969767928123474;0.9024094343185425
36700;-0.22851325571537018;-0.23710636951780678;-0.016839129850268364;0.023752645228140086;0.2458401471376419;0.011654043570160866;0.9808798432350159
36800;-0.2293703556060791;-0.23602870852812807;-0.007833768613636494;0.06433483297388681;0.23468764126300812;0.10415801405906677;0.9745436906814575
36900;-0.23120829463005066;-0.2396141072937547;0.0045720310881733894;0.08236859414815753;0.2429308146238327;0.10003054141998291;0.9864848256111145
37000;-0.23270075023174286;-0.2505532440835311;0.015154393389821053;0.0986331338332632;0.262084037065506;0.1145980954170227;0.9336026310920715
37100;-0.23376059532165527;-0.264456211387389;0.020830491557717323;0.10263688619204747;0.27929770946502686;0.10634315013885498;0.9438378810882568
37200;-0.2342926263809204;-0.263092677652366;0.022386008873581886;0.08489702942593745;0.2630538046360016;0.06676795333623886;0.9306783080101013
37300;-0.23417717218399048;-0.2374670558828691;0.020366480574011803;0.027443172807218037;0.21262507140636444;-0.03015323542058468;0.9523673057556152
37400;-0.23355457186698914;-0.23458880831928733;0.013604131527245045;0.0006440527447675801;0.23153585195541382;-0.026293622329831123;0.9616277813911438
37500;-0.23340430855751038;-0.2346134646922154;0.009852352552115917;-0.015532475157074756;0.2339603155851364;-0.032083041965961456;0.9509051442146301
37600;-0.23317496478557587;-0.23561732409930547;0.011755767278373241;0.0036106051739272504;0.2361423224210739;0.022336916998028755;0.9097203016281128
37700;-0.23347771167755127;-0.2392931605833857;0.014601279981434345;0.029116623970944167;0.2426883578300476;0.05462832748889923;0.9996444582939148
37800;-0.2358851283788681;-0.2587263581439565;0.016923420131206512;0.017282264099352795;0.27857035398483276;0.005341436713933945;10.186.527.967.453.000
37900;-0.23670993745326996;-0.24120567937391585;0.015523337759077549;0.022782639118692133;0.22450491786003113;0.0276783537119627;0.9357959032058716
38000;-0.23303714394569397;-0.21747374660268445;0.01604999043047428;0.026948474603872334;0.19444161653518677;0.030349070206284523;0.9372580647468567
38100;-0.22676169872283936;-0.19506191306285875;0.012483055703341961;0.002570764802555324;0.173106387257576;-0.02243400737643242;0.9774680733680725
38200;-0.21986675262451172;-0.18506842101322807;0.009010689333081245;-0.007161337355141246;0.17528840899467468;-0.0176094900816679;0.9496866464614868
38300;-0.2109559029340744;-0.15639751670228091;0.007562225218862295;-0.0019218415793497059;0.12776899337768555;0.0029135108925402164;0.9477370381355286
38400;-0.20418378710746765;-0.14668351247813935;0.009022827260196209;-0.0017959945930821402;0.13625460863113403;-0.0014473553746938705;11.192.996.501.922.600
38500;-0.20030556619167328;-0.16460002514751332;0.009036238305270672;-0.003263255694120244;0.18207687139511108;-0.0038596142549067736;1.057.644.248.008.720
38600;-0.20180073380470276;-0.16234200944491636;0.011615858413279057;0.03231922189402694;0.1604991853237152;0.06871029734611511;0.9494429230690002
38700;-0.20212961733341217;-0.17534673288998698;0.011767685413360596;-0.0036466460239453977;0.18862292170524597;-0.03931982070207596;0.9686949253082275
38800;-0.20275433361530304;-0.18882026642927616;0.00910888984799385;-0.006596209621690878;0.20268477499485016;-0.009407809935510159;0.9706445932388306
38900;-0.20534266531467438;-0.21905419007117738;0.007432827726006508;0.014043646442029274;0.2502041757106781;0.035204920917749405;1.019.627.571.105.950
39000;-0.2098671942949295;-0.22879341084944171;0.004814761225134134;-0.013488199377836707;0.2388092279434204;-0.040525950491428375;0.9752748012542725
39100;-0.21588969230651855;-0.2567535474520215;0.0017832228913903236;-0.02718018451514537;0.28487393260002136;-0.04028472676873207;0.9955016374588013
39200;-0.2229803502559662;-0.26489272345651343;-0.0005717107560485601;-0.02229021568975948;0.27250921726226807;-0.01688581332564354;0.9046027064323425
39300;-0.22884392738342285;-0.2771601293083906;0.0012209591222926974;-0.02122793048490009;0.28875309228897095;-0.020986653864383698;0.9740563035011292
39400;-0.2287326455116272;-0.2771652343701268;0.004655397497117519;0.005079924441912815;0.27760058641433716;0.030106279999017715;0.8375861048698425
39500;-0.22677521407604218;-0.28407110407612346;0.006679304409772158;0.04114183012995355;0.29190489649772644;0.07623686641454697;0.8919304609298706
39600;-0.22421853244304657;-0.25814669361842646;0.004479977767914534;-0.017428752399687768;0.23177829384803772;-0.07622738927602768;0.9721066951751709
39700;-0.22326472401618958;-0.21976243730822098;0.001721508800983429;-0.02537784825386316;0.18110710382461548;-0.03304794803261757;10.074.427.127.838.100
39800;-0.22125685214996338;-0.21555653164927044;0.0013836146099492908;-0.01722364249609009;0.21092794835567474;-0.008925357833504677;0.9767369627952576
39900;-0.2208758443593979;-0.20287760270151917;0.002615192672237754;0.008015673636094848;0.19007760286331177;0.033019788563251495;0.9669890999794006
40000;-0.21940883994102478;-0.19539760866882674;0.005155288614332676;-0.020852444778218578;0.18838047981262207;-0.05017498508095741;0.842460036277771
40100;-0.22022205591201782;-0.19045884774508404;0.002078279387205839;-0.026280275753813497;0.18498623371124268;-0.032083041965961456;0.9189808368682861
40200;-0.21842612326145172;-0.20144716009708197;6,48E+10;0.033094113067169084;0.21238262951374054;0.09250397235155106;0.8171155452728271
40300;-0.21814416348934174;-0.21077534491866573;0.003349323058500886;0.037259122880720044;0.22014088928699493;0.041517529636621475;10.676.358.938.217.100
40400;-0.21524964272975922;-0.2146991994296143;0.0014042021939530969;0.004382446357262308;0.21820132434368134;-0.028705881908535957;1.044.240.951.538.080
40500;-0.21448858082294464;-0.21755762199772752;0.0005182162276469171;0.008764070269450442;0.22014088928699493;0.01311079878360033;0.9684512615203857
40600;-0.21272249519824982;-0.20933329971470083;0.0042968313209712505;0.02350488136513694;0.20098766684532166;0.038604021072387695;0.9594345092773438
40700;-0.21428486704826355;-0.19431072654975776;0.005477773956954479;0.009238471531364287;0.17940998077392578;-0.004100840073078871;0.8480650186538696
40800;-0.21910472214221954;-0.16771322859432308;0.005947134457528591;-0.011122134428842946;0.14061862230300903;-0.029429558664560318;0.8010315299034119
40900;-0.22278574109077454;-0.2047741792560271;0.0018016155809164047;0.003372066530314124;0.2414761334657669;0.018695026636123657;0.9418883323669434
41000;-0.22517144680023193;-0.18853617695451574;0.006569161079823971;0.03143773298358928;0.1716517060995102;0.059241387993097305;0.9764932990074158
41100;-0.22049580514431;-0.18553314646958208;0.01058176252990961;0.019575522737575516;0.18207687139511108;0.006555399391800165;10.064.680.576.324.400
41200;-0.21119360625743866;-0.15225227702647653;0.011670379899442196;0.012177159476569914;0.11855605244636536;0.004127473570406437;0.952610969543457
41300;-0.20091111958026886;-0.15131568764818398;0.01480912696570158;-0.007557372655591725;0.14958913624286652;-0.02749975211918354;10.208.460.092.544.500
41400;-0.19493122398853302;-0.11397360872506732;0.013567516580224037;-0.009032290882853435;0.07637046277523041;-0.010855165310204029;0.9002161026000977
41500;-0.18490563333034515;-0.12105719787037922;0.01578475348651409;0.006596121994745619;0.12728409469127655;0.021851330995559692;0.935552179813385
41600;-0.18000386655330658;-0.11253471124375829;0.01943446882069111;0.013039321424671554;0.10425174236297607;0.018937820568680763;0.9645521640777588
41700;-0.17185181379318237;-0.09851970497039525;0.01941566728055477;-0.002332137124071121;0.0838862881064415;-0.01833316870033741;0.9920898675918579
41800;-0.1641124188899994;-0.10770456889898644;0.0162954218685627;0.015981645598467976;0.11685892939567566;0.03399096056818962;0.8427037000656128
41900;-0.15642684698104858;-0.1103687994480401;0.016677970066666603;0.015498672674903518;0.11225245893001556;0.014810346998274326;10.515.519.380.569.400
42000;-0.15181474387645721;-0.10601529943615218;0.0181885976344347;0.008891190776684557;0.10134238749742508;0.0024279258213937283;10.118.293.762.207.000
42100;-0.1511332243680954;-0.11483987746461193;0.019018666818737984;0.009513737989002104;0.12340497225522995;0.010440080426633358;0.9730815291404724
42200;-0.1501343548297882;-0.11635914166802683;0.020164504647254944;-0.0006975387618859061;0.11807116121053696;-0.010613939724862576;0.7949391603469849
42300;-0.1513594090938568;-0.10005439178223442;0.02020150236785412;-0.017968190033388037;0.0834013968706131;-0.0349777527153492;0.8909556865692139
42400;-0.14739376306533813;-0.1156995815752564;0.01932418718934059;-0.009792429491904512;0.13116323947906494;-0.002171033062040806;0.9506614208221436
42500;-0.14172719419002533;-0.1156737012561056;0.01747860759496689;-0.02204163798770929;0.11467691510915756;-0.0349777527153492;0.825401246547699
42600;-0.13782525062561035;-0.13389723319561514;0.01913084276020527;-0.00017551483494041703;0.15152870118618011;0.020394576713442802;0.9389639496803284
42700;-0.1331934630870819;-0.10514660956913643;0.02274775691330433;-0.0005194357406550866;0.07540068030357361;-0.002412258880212903;10.549.635.887.145.900
42800;-0.12570154666900635;-0.10449308344489065;0.023355450481176376;0.013575082934188406;0.10303951054811478;0.02694997750222683;0.9528546929359436
42900;-0.12183748930692673;-0.10696738430999506;0.02499040775001049;0.011187626502746252;0.10885821282863617;0.009226118214428425;0.9886780977249146
43000;-0.1213286817073822;-0.10116370137837012;0.026043811812996864;0.011829259031472354;0.09455391019582748;0.013353591784834862;0.9479807615280151
43100;-0.12087969481945038;-0.09083014849590437;0.027364330366253853;0.04568138574844746;0.0802495926618576;0.07987875491380692;0.9340900778770447
43200;-0.11820181459188461;-0.08131102506888274;0.030735133215785027;0.015102322104356025;0.07079420238733292;-0.015438457019627094;0.8858380913734436
43300;-0.1169358640909195;-0.07905317522702782;0.03288289159536362;0.026238487680279594;0.07637046277523041;0.03763284906744957;0.8405104875564575
43400;-0.11863937973976135;-0.10119938988987699;0.034751590341329575;0.008046286846211486;0.12219274044036865;-0.00989026203751564;1.038.392.186.164.850
43500;-0.12309353798627853;-0.150911173440857;0.03780857101082802;0.05839468449173393;0.19977544248104095;0.10852827876806259;0.9467622637748718
43600;-0.1260688751935959;-0.17398475906295735;0.03958562761545181;0.026371710363113608;0.19589629769325256;-0.006030647549778223;10.325.435.400.009.100
43700;-0.1282442957162857;-0.1527209907464446;0.04486110061407089;0.030498926968702475;0.13067834079265594;0.03423375263810158;0.9121572971343994
43800;-0.13038946688175201;-0.16475441672775987;0.05014174059033394;0.03553992352096606;0.17650063335895538;0.040789153426885605;0.9301908612251282
43900;-0.13413727283477783;-0.1585228690468862;0.05183122679591179;0.04554967612071875;0.15225602686405182;0.05584229528903961;0.9760059118270874
44000;-0.13891099393367767;-0.17956044673772165;0.05309755355119705;0.011813562112790534;0.20001788437366486;-0.021469103172421455;0.9348210692405701
44100;-0.14670442044734955;-0.1850333355734403;0.05031890794634819;0.022338216612206533;0.18935026228427887;0.03326258063316345;0.8341743350028992
44200;-0.15282891690731049;-0.1739989956831577;0.05749647691845894;0.07530632092341626;0.1629236489534378;0.12795168161392212;0.9886780977249146
44300;-0.1530023068189621;-0.20558861542034118;0.05742231756448746;0.053587207684619866;0.2368696630001068;0.0313202403485775;0.8972918391227722
44400;-0.15493857860565186;-0.19612456380577867;0.05413820967078209;0.04081550300738744;0.18644091486930847;0.027435559779405594;0.9616277813911438
44500;-0.15468217432498932;-0.18007148328705364;0.05423528701066971;0.025060693374677964;0.1631661057472229;0.009226118214428425;10.264.511.108.398.400
44600;-0.1573633998632431;-0.17371763904512083;0.05389837548136711;0.03508091698733154;0.167772576212883;0.04491662606596947;10.079.301.595.687.800
44700;-0.15740515291690826;-0.16782364817736814;0.05664204806089401;0.01284976035804359;0.1619538813829422;-0.008925357833504677;1.015.241.026.878.350
44800;-0.16013330221176147;-0.1396319893416817;0.05506336688995361;0.04269108562895159;0.11201001703739166;0.07429452240467072;0.9740563035011292
44900;-0.16676560044288635;-0.16305473081846175;0.05206858739256859;0.026561688434817002;0.18619845807552338;0.011654043570160866;0.8936363458633423
45000;-0.17129230499267578;-0.18484056257577308;0.05163201689720154;0.032445078116815115;0.20607902109622955;0.03884681314229965;0.9245858788490295
45100;-0.1763884425163269;-0.1870014480030056;0.056633662432432175;0.09156985570012174;0.18983514606952667;0.15053139626979828;0.8841321468353271
45200;-0.1778288632631302;-0.2045710461658019;0.05791560932993889;0.05282444934680701;0.22305025160312653;0.015053139999508858;0.9155690670013428
45300;-0.17991004884243011;-0.16934997409944497;0.05159367248415947;0.0034600656365718907;0.13431504368782043;-0.046797823160886765;0.9728378057479858
45400;-0.1770428866147995;-0.18041312189849418;0.047733765095472336;0.020859159082096502;0.19201716780662537;0.0369044728577137;0.9260479807853699
45500;-0.17264625430107117;-0.17578280140112015;0.044015705585479736;0.00048697960965308;0.1704394668340683;-0.02122787944972515;0.9501740336418152
45600;-0.16966474056243896;-0.18754110645876282;0.045309845358133316;0.04000166765686117;0.19953298568725586;0.07915037870407104;0.9253169298171997
45700;-0.17086143791675568;-0.1862967327235251;0.047052912414073944;0.08019673329465415;0.18644091486930847;0.12091069668531418;0.9365270137786865
45800;-0.17642953991889954;-0.15567370282223847;0.04591047391295433;0.033174517109053905;0.12679921090602875;-0.013991101644933224;0.8651238083839417
45900;-0.17582827806472778;-0.2080595098748435;0.03720180690288544;-0.035099842275822045;0.2606293559074402;-0.10445081442594528;0.9323841333389282
46000;-0.17503134906291962;-0.2217438323919458;0.028319859877228737;-0.012736774133565765;0.2349300980567932;0.008497740142047405;0.9204429984092712
46100;-0.17530114948749542;-0.19909887352940797;0.031594570726156235;0.034134801173702996;0.17650063335895538;0.08036433905363083;10.539.889.335.632.300
46200;-0.17392346262931824;-0.21040980191093756;0.03278055042028427;0.05583968273613646;0.22256535291671753;0.07696525007486343;0.9864848256111145
46300;-0.17233717441558838;-0.1737524754299133;0.032735634595155716;0.06910606309519685;0.13843661546707153;0.08133551478385925;10.966.358.184.814.400
46400;-0.17008285224437714;-0.17017610607148903;0.029767673462629318;0.030683449824161033;0.1675301343202591;-0.007719228509813547;0.8729221224784851
46500;-0.17154745757579803;-0.17069530650881168;0.023535460233688354;0.02547236072904684;0.1716517060995102;0.021851330995559692;0.9279976487159729
46600;-0.17674392461776733;-0.1792203942686641;0.02105799689888954;0.02876781046135446;0.18716824054718018;0.03350537270307541;0.9667453765869141
46700;-0.1809500902891159;-0.19268179651967443;0.023697029799222946;0.035561436558634515;0.20583659410476685;0.04273149371147156;0.9379891753196716
46800;-0.18427006900310516;-0.1985072153061685;0.02703598514199257;0.03281396670427187;0.20486679673194885;0.02986348792910576;0.8929052352905273
46900;-0.18465180695056915;-0.17101862927806288;0.025410562753677368;0.039950795674519035;0.14425532519817352;0.04685896635055542;10.457.031.726.837.100
47000;-0.18277673423290253;-0.14801369132722664;0.025146005675196648;0.025648803766620737;0.12510208785533905;0.010925665497779846;0.9238547682762146
47100;-0.17888988554477692;-0.1288618989091386;0.022930027917027473;0.00037544005968976127;0.10958555340766907;-0.02532871812582016;0.9457874298095703
47200;-0.17371998727321625;-0.12250426518389347;0.02326788939535618;0.001396240513462986;0.11564670503139496;0.0016995479818433523;0.9794176816940308
47300;-0.16834993660449982;-0.13180846546681452;0.027285071089863777;0.04694521500013987;0.14158840477466583;0.09201838076114655;0.9357959032058716
47400;-0.16412822902202606;-0.13136431628853734;0.029978839680552483;0.05402798869699802;0.13189058005809784;0.060698140412569046;0.9513924717903137
47500;-0.1601175218820572;-0.13380214931754364;0.025919999927282333;0.043713101601701165;0.13698194921016693;0.033019788563251495;0.9745436906814575
47600;-0.1573653221130371;-0.1421556119268976;0.02441459335386753;0.013781435026630429;0.15055890381336212;-0.01616213656961918;0.9745436906814575
47700;-0.15695452690124512;-0.1343832349516894;0.02240091748535633;0.021309982249818275;0.12679921090602875;0.028892317786812782;0.9735689163208008
47800;-0.15655075013637543;-0.12202632618751214;0.02292299084365368;0.018918216292078547;0.11031289398670197;0.01626710407435894;0.9855100512504578
47900;-0.15643936395645142;-0.1663788699554252;0.0223926343023777;0.014350431212167383;0.21092794835567474;0.009711703285574913;0.9479807615280151
48000;-0.16030219197273254;-0.18551353794801362;0.020598921924829483;0.004159307400304572;0.20462435483932495;-0.006271873135119677;0.9643084406852722
48100;-0.16190259158611298;-0.17539100277673345;0.020180266350507736;0.02723377962679205;0.1651056706905365;0.050015270709991455;0.9394513964653015
48200;-0.16355982422828674;-0.1857653475051662;0.021546345204114914;0.018414515042871726;0.19613873958587646;0.008740533143281937;10.071.990.489.959.700
48300;-0.16399343311786652;-0.19362156304475756;0.021675094962120056;0.03413193024846079;0.20171500742435455;0.049286894500255585;0.9957453608512878
48400;-0.16611389815807343;-0.19735588989160208;0.02310137264430523;0.031243332977418988;0.20123010873794556;0.02840672992169857;0.9382328391075134
48500;-0.168524831533432;-0.17154950812474754;0.02154247835278511;0.0190328271395193;0.14570999145507812;0.007040984462946653;0.9387202858924866
48600;-0.17241832613945007;-0.1842806402288616;0.022081565111875534;0.009267656728515424;0.19638119637966156;-0.0;0.9221488833427429
48700;-0.1777108609676361;-0.1908420569661877;0.020709799602627754;0.011717812410365222;0.19686609506607056;0.014324761927127838;0.868535578250885
48800;-0.18141253292560577;-0.19277241097805348;0.021049311384558678;0.02189326058925144;0.19419918954372406;0.0313202403485775;0.9011909365653992
48900;-0.18026264011859894;-0.19612244324730602;0.024200335144996643;0.02710135667919189;0.19904810190200806;0.030834658071398735;0.9969637989997864
49000;-0.17862416803836823;-0.1911929597569223;0.026130082085728645;0.03449843836179734;0.18595601618289948;0.04030356928706169;0.9360396265983582
49100;-0.17454485595226288;-0.19192920337306676;0.02748921699821949;0.04326864151846069;0.19250206649303436;0.05122923478484154;0.9579722881317139
49200;-0.1735409051179886;-0.1653309455212587;0.028739094734191895;0.03138757330713028;0.13892149925231934;0.019423406571149826;10.011.066.198.349
49300;-0.1738036572933197;-0.1664278521056513;0.027238933369517326;0.026950970742429175;0.167772576212883;0.023065295070409775;0.921417772769928
49400;-0.17584110796451569;-0.15983003406164883;0.027372457087039948;0.02442492436946611;0.1532258242368698;0.022579709067940712;10.203.588.008.880.600
49500;-0.17783139646053314;-0.16163068971885952;0.02707824297249317;0.0347891172671478;0.1636510044336319;0.04540221393108368;0.9626024961471558
49600;-0.17675046622753143;-0.15431152003364676;0.028864433988928795;0.031191255599521794;0.14740711450576782;0.02694997750222683;0.9521235823631287
49700;-0.17231793701648712;-0.12877310946824866;0.02838546596467495;0.07484466508890593;0.10400930047035217;0.11775439977645874;0.9601655602455139
49800;-0.16799433529376984;-0.13248716444450614;0.02847282774746418;0.027819676453947527;0.13625460863113403;-0.01905684731900692;10.042.747.259.140.000
49900;-0.16531822085380554;-0.1374566122167137;0.0258667953312397;0.0034013642309192564;0.14158840477466583;-0.020262975245714188;10.125.603.675.842.200
50000;-0.16509684920310974;-0.13759141790474194;0.025770455598831177;-0.04931399338255641;0.13601216673851013;-0.10155610740184784;0.8909556865692139
50100;-0.1654881089925766;-0.15446798286803037;0.028565317392349243;0.044875018419809495;0.1711668223142624;0.13912014663219452;0.8441658616065979
50200;-0.16681015491485596;-0.16022409880281785;0.03878460079431534;0.07088043354750234;0.1675301343202591;0.09638865292072296;0.9506614208221436
50300;-0.16377778351306915;-0.1447801656704484;0.03596412390470505;0.034712463079778336;0.13043591380119324;-0.002653484931215644;0.9777117371559143
50400;-0.15791292488574982;-0.14558790048689502;0.02858547307550907;-0.03655590576746518;0.14595244824886322;-0.10903409868478775;0.9986696839332581
50500;-0.15378893911838531;-0.14383830549542997;0.025264736264944077;0.031866404418418565;0.14207331836223602;0.09905937314033508;0.9141069054603577
50600;-0.14855888485908508;-0.15471056705324177;0.028462348505854607;0.003046923359043205;0.1658330112695694;-0.02605239674448967;10.561.821.460.723.800
50700;-0.14779143035411835;-0.143230674144409;0.0305471234023571;0.05379876022652431;0.13310280442237854;0.10537197440862656;11.154.005.527.496.300
50800;-0.14946159720420837;-0.12824315720458757;0.027593057602643967;0.01954113459696938;0.11322224140167236;-0.013267423957586288;10.393.670.797.348.000
50900;-0.1525847166776657;-0.14043048154560991;0.026726091280579567;0.0017978140816166874;0.15225602686405182;-0.014956005848944187;0.9255606532096863
51000;-0.15677444636821747;-0.1516011120338368;0.02878148853778839;0.05288935584013918;0.1634085476398468;0.10488639026880264;0.9089892506599426
51100;-0.16042453050613403;-0.1508951305115434;0.030356768518686295;0.022100197777669764;0.15007402002811432;-0.008201680146157742;10.145.100.355.148.300
51200;-0.15888653695583344;-0.1434522464330112;0.027564039453864098;-0.013828813359287338;0.13504236936569214;-0.050416212528944016;10.564.258.098.602.200
51300;-0.15469345450401306;-0.15745911632550166;0.029304714873433113;0.005754367209238184;0.1689848005771637;0.024522049352526665;0.9262917041778564
51400;-0.15335379540920258;-0.15500608098622853;0.039585188031196594;0.0477226495710559;0.15080136060714722;0.08934766799211502;0.7981072068214417
51500;-0.1535607874393463;-0.1373634023522855;0.05227579176425934;0.10284112735003792;0.11879849433898926;0.15781517326831818;0.9450563788414001
51600;-0.1540745049715042;-0.144392109680788;0.059278398752212524;0.082797080751213;0.15104380249977112;0.062640480697155;0.9881907105445862
51700;-0.15408416092395782;-0.1454696289233906;0.06320228427648544;0.07855138475040528;0.14667977392673492;0.07429452240467072;0.906552255153656
51800;-0.15359275043010712;-0.154470386313034;0.06274020671844482;0.06733785504514689;0.1636510044336319;0.05608508735895157;0.9713756442070007
51900;-0.15461798012256622;-0.1564129488597787;0.06049197167158127;0.06596642731791577;0.1580747365951538;0.06458282470703125;0.9306783080101013
52000;-0.15550728142261505;-0.16245665495719044;0.061350200325250626;0.06710671130791766;0.1684999167919159;0.0682247132062912;0.9550479650497437
52100;-0.15628622472286224;-0.1655666853113475;0.06209196522831917;0.06056509898648344;0.1684999167919159;0.05341436713933945;0.9684512615203857
52200;-0.15561112761497498;-0.15405631229068073;0.06171770393848419;0.0524983263914658;0.14255820214748383;0.043459873646497726;0.982342004776001
52300;-0.15080159902572632;-0.13882359127522675;0.060464635491371155;0.03306683521339791;0.12340497225522995;0.012868006713688374;0.9370144009590149
52400;-0.1483122855424881;-0.12110757078850623;0.05858378857374191;0.02527897184239808;0.10303951054811478;0.017238274216651917;0.9375017285346985
52500;-0.14643898606300354;-0.11777107486217578;0.05899779498577118;0.03821326834823978;0.11419202387332916;0.05122923478484154;0.9521235823631287
52600;-0.14539705216884613;-0.12442136683602296;0.05937880650162697;0.04923287406080098;0.13067834079265594;0.06045534834265709;0.9657706022262573
52700;-0.1456320881843567;-0.13346697853411763;0.06078916788101196;0.0790246052079262;0.14255820214748383;0.1090138629078865;0.9959890246391296
52800;-0.14515644311904907;-0.1315814148003872;0.062025751918554306;0.06983660506538099;0.12946611642837524;0.060698140412569046;0.9818546175956726
52900;-0.14456705749034882;-0.13268148127136134;0.06170060858130455;0.06936105722019578;0.13383014500141144;0.06871029734611511;0.9460311532020569
53000;-0.14419178664684296;-0.11338629602149862;0.06134709715843201;0.04692219942540489;0.09406901150941849;0.024522049352526665;0.9972074627876282
53100;-0.14250220358371735;-0.1171508017562515;0.060301315039396286;0.04660504871652194;0.12073806673288345;0.04613059014081955;0.990384042263031
53200;-0.14152291417121887;-0.1229586615052293;0.06214318051934242;0.06330949297580414;0.12849633395671844;0.07963596284389496;0.970400869846344
53300;-0.13917379081249237;-0.12111362097676057;0.06390300393104553;0.07371755368855404;0.11904094368219376;0.08376343548297882;0.9869722723960876
53400;-0.1364193707704544;-0.11828663410844648;0.06586480140686035;0.09739224308338665;0.11540426313877106;0.12091069668531418;0.9613840579986572
53500;-0.13406991958618164;-0.11666293095480018;0.06572256237268448;0.05131255211191346;0.11491936445236206;0.005098644178360701;0.9557790756225586
53600;-0.13210633397102356;-0.1285518494598507;0.06498603522777557;0.05944329206887848;0.14061862230300903;0.06749633699655533;0.9957453608512878
53700;-0.13117057085037231;-0.1276764872695472;0.06643137335777283;0.05906921674165265;0.12631432712078094;0.05875580012798309;0.9784428477287292
53800;-0.13080920279026031;-0.13020363276690183;0.06862149387598038;0.07359723816610796;0.13261792063713074;0.08789090812206268;10.071.990.489.959.700
53900;-0.13084092736244202;-0.11808469856282619;0.06985679268836975;0.0668974612424566;0.10570641607046127;0.05972697585821152;0.967476487159729
54000;-0.1277693510055542;-0.1143067380905654;0.06964893639087677;0.06278846250967658;0.11007044464349747;0.05827021971344948;0.9499303102493286
54100;-0.12631073594093323;-0.13372887703794034;0.0724804624915123;0.08973529642046457;0.1532258242368698;0.11605485528707504;0.9635773301124573
54200;-0.12428176403045654;-0.12935830299149953;0.07285432517528534;0.07198505968914377;0.12510208785533905;0.053657159209251404;0.9126446843147278
54300;-0.12221059203147888;-0.11107207443895606;0.07308818399906158;0.0661308256614413;0.09358412027359009;0.05972697585821152;0.9136195182800293
54400;-0.11999484896659851;-0.10737475305034799;0.06955572217702866;0.038952265150303464;0.10400930047035217;0.011411250568926334;0.9777117371559143
54500;-0.11945125460624695;-0.11771670428866161;0.06545142084360123;0.045772890065788774;0.12898121774196625;0.05171481892466545;0.8950985074043274
54600;-0.11622796952724457;-0.13192123638415332;0.06304998695850372;0.06210792655156046;0.14764957129955292;0.07696525007486343;0.9221488833427429
54700;-0.11276296526193619;-0.12003184771964959;0.057429324835538864;0.02494754095522022;0.10861577093601227;-0.013508650474250317;0.9165438413619995
54800;-0.10826421529054642;-0.10617411351106314;0.05162155628204346;0.015488423150879196;0.09261434525251389;0.005341436713933945;1.039.610.743.522.640
54900;-0.10500186681747437;-0.09751791539694754;0.04816587269306183;-0.004566247844919186;0.08825031667947769;-0.024363813921809196;1.093.955.159.187.310
55000;-0.10566350072622299;-0.10106362087175341;0.04645136371254921;0.053089270353450686;0.10497908294200897;0.11265575140714645;10.011.066.198.349
55100;-0.11108558624982834;-0.10885651934771329;0.04621201753616333;0.04876502864118236;0.11710137128829956;0.04783013463020325;10.369.300.842.285.100
55200;-0.12286791205406189;-0.12128197460060726;0.041583336889743805;-0.0277472742524398;0.13237546384334564;-0.10083242505788803;0.9150816798210144
55300;-0.13530749082565308;-0.14715727555797853;0.03794647008180618;0.0002090373852271371;0.172136589884758;0.02986348792910576;0.923611044883728
55400;-0.14385169744491577;-0.15553316539494622;0.04218446835875511;0.007495545441928885;0.16243876516819;0.01456755492836237;0.8982665538787842
55500;-0.144113689661026;-0.14497469856723225;0.04509362578392029;0.03715851407666301;0.13383014500141144;0.06531120836734772;0.9777117371559143
55600;-0.13911639153957367;-0.1562858422509364;0.04879079386591911;0.04621129810513493;0.1675301343202591;0.05341436713933945;10.437.535.047.531.100
55700;-0.13450942933559418;-0.13937045035693318;0.04986638203263283;0.03105871592452471;0.12170784920454025;0.014324761927127838;0.9657706022262573
55800;-0.13018617033958435;-0.12550166237209182;0.048132557421922684;0.015517356782985832;0.11152512580156326;-0.0004824517818633467;0.851476788520813
55900;-0.12993469834327698;-0.129636015816986;0.04570266231894493;0.0230386678991737;0.13358770310878754;0.030834658071398735;0.9750310778617859
56000;-0.13280890882015228;-0.16035500186154444;0.045105136930942535;0.036073981200947;0.19128982722759247;0.04904409870505333;0.952610969543457
56100;-0.13540902733802795;-0.17107074900776784;0.0471951961517334;0.021782881512098146;0.18280421197414398;0.006555399391800165;0.987459659576416
56200;-0.13478340208530426;-0.163581774987262;0.043103571981191635;0.013571335502752892;0.1568625122308731;0.0048558516427874565;0.9957453608512878
56300;-0.13478654623031616;-0.17238283267686708;0.03823714703321457;0.016030029168724917;0.18134954571723938;0.018209444358944893;10.325.435.400.009.100
56400;-0.13664951920509338;-0.14993162039891322;0.03738219290971756;0.013810584245902209;0.12752655148506165;0.011654043570160866;0.9962327480316162
56500;-0.13600364327430725;-0.12839189299704162;0.03697049990296364;0.01909119896629216;0.10667620599269867;0.024279257282614708;1.013.778.805.732.720
56600;-0.13467547297477722;-0.1322151556858264;0.037790779024362564;0.042819742224298206;0.13576970994472504;0.06628236919641495;0.9791739583015442
56700;-0.13351485133171082;-0.13023205428043333;0.04141857102513313;0.07503711739882937;0.12849633395671844;0.1068287342786789;0.9421320557594299
56800;-0.13170409202575684;-0.10221662705522627;0.045167259871959686;0.07114402072057009;0.07443089038133621;0.06701074540615082;0.974299967288971
56900;-0.12894392013549805;-0.09249529350525497;0.044515833258628845;0.053447106053795136;0.0834013968706131;0.03544771298766136;10.376.611.948.013.300
57000;-0.12589651346206665;-0.10400260782710724;0.043643780052661896;0.04852369772551035;0.11564670503139496;0.04321707785129547;10.225.520.133.972.100
57100;-0.12230285257101059;-0.08650754244447109;0.041798342019319534;0.012286588426026174;0.06909708678722382;-0.024363813921809196;0.9323841333389282
57200;-0.11614029854536057;-0.07029127905476115;0.04081721976399422;0.037472891809012296;0.054307885468006134;0.062154900282621384;0.9859974384307861
57300;-0.11163225769996643;-0.0894906716243385;0.04182115197181702;0.03551778165560965;0.10885821282863617;0.03326258063316345;10.581.316.947.937.000
57400;-0.1107749491930008;-0.12149404963974739;0.042212970554828644;0.048429005103756306;0.1537107229232788;0.06166931614279747;1.004.762.053.489.680
57500;-0.11625082045793533;-0.13247007536967004;0.041730012744665146;0.03678202129688134;0.14304308593273163;0.025978805497288704;10.091.487.169.265.700
57600;-0.12156037241220474;-0.12488218229599574;0.04290376603603363;0.037250359210182715;0.11685892939567566;0.038604021072387695;0.9950142502784729
57700;-0.12469786405563354;-0.13299604316464952;0.04462437331676483;0.03559489286741658;0.14110352098941803;0.03423375263810158;0.9721066951751709
57800;-0.12592530250549316;-0.13177049109644706;0.04602757468819618;0.06659932834569782;0.13067834079265594;0.09735982120037079;0.9494429230690002
57900;-0.12411568313837051;-0.14121777424387286;0.04632630571722984;0.04459055184596321;0.15104380249977112;0.021851330995559692;0.9589471220970154
58000;-0.12252061814069748;-0.12657382583300852;0.04259064421057701;0.026113915073321746;0.11225245893001556;0.007040984462946653;0.8880313038825989
58100;-0.12029432505369186;-0.11222155410842549;0.039940737187862396;0.020125884361575343;0.09794814884662628;0.013596383854746819;0.9713756442070007
58200;-0.1183025911450386;-0.11380663919149518;0.038934916257858276;0.016733125361233947;0.11564670503139496;0.012625213712453842;0.9538294672966003
58300;-0.11616169661283493;-0.09795527477395086;0.036106452345848083;0.017577316348658726;0.0824316069483757;0.017966650426387787;0.9774680733680725
58400;-0.11487476527690887;-0.10163086761584005;0.0345030203461647;0.009442264913968624;0.10594886541366577;0.0009711703169159591;0.958459734916687
58500;-0.1147763654589653;-0.09949889414604013;0.030960798263549805;0.017237323109863412;0.09819059818983078;0.025007635354995728;0.9491991996765137
58600;-0.1153501570224762;-0.1193266174349573;0.028431465849280357;0.007989803968111402;0.13964885473251343;-0.0014473553746938705;0.9857537150382996
58700;-0.11585259437561035;-0.1277711165086503;0.024257585406303406;0.0018370502285297392;0.13625460863113403;-0.0045832921750843525;0.9920898675918579
58800;-0.11682237684726715;-0.1277581202932067;0.023518895730376244;0.002817656749489226;0.12801145017147064;0.0033990959636867046;0.9947705268859863
58900;-0.11614251881837845;-0.13918750614831596;0.02060260996222496;-0.025005355228508868;0.15104380249977112;-0.05331092327833176;0.9633336067199707
59000;-0.11661558598279953;-0.1302941594902035;0.01579310931265354;-0.02532486897975269;0.12098050862550735;-0.02605239674448967;0.8731657862663269
59100;-0.11674802750349045;-0.12638294502589048;0.014351295307278633;-0.013700138720712757;0.12219274044036865;-0.002412258880212903;0.8768212795257568
59200;-0.11846994608640671;-0.11044685528462311;0.01611701399087906;0.00039244571972912867;0.09431146085262299;0.01383917685598135;0.9109388589859009
59300;-0.11665818095207214;-0.12260228625598886;0.019159499555826187;0.019260219240809628;0.13455748558044434;0.037390053272247314;1.004.762.053.489.680
59400;-0.11331257969141006;-0.1150230994965471;0.021258890628814697;0.04214199583480492;0.10764598846435547;0.0648256167769432;10.798.207.521.438.500
59500;-0.11178223043680191;-0.11443429969482417;0.022767258808016777;0.030028597587163808;0.11394958198070526;0.018937820568680763;1.030.593.991.279.600
59600;-0.11570524424314499;-0.12171302914157384;0.024490611627697945;0.03252019676544969;0.12995101511478424;0.03666168078780174;0.9859974384307861
59700;-0.12203997373580933;-0.12383146558146929;0.024280650541186333;0.014557639186608358;0.12631432712078094;-0.0016885813092812896;0.9679639339447021
59800;-0.1287296563386917;-0.12769317912807182;0.022008361294865608;0.021246669438086264;0.13213303685188293;0.028892317786812782;0.9872159361839294
59900;-0.13355019688606262;-0.1351120917571631;0.022638438269495964;0.058194066373180614;0.14328552782535553;0.09493190050125122;10.184.091.329.574.500
60000;-0.13247810304164886;-0.13977380824353383;0.023244407027959824;0.05685935112026503;0.14474020898342133;0.05414274334907532;0.9847790002822876
60100;-0.12851355969905853;-0.13178168222277764;0.023793518543243408;0.06210019010814928;0.12413231283426285;0.06603957712650299;0.9574849009513855
60200;-0.12371451407670975;-0.1121858800904679;0.025963841006159782;0.03805495145543599;0.09285678714513779;0.01311079878360033;0.9175186157226562
60300;-0.12004991620779037;-0.10148831536388735;0.02519247867166996;0.03286217806586088;0.09091722220182419;0.027192767709493637;0.9438378810882568
60400;-0.11806683987379074;-0.10035020127066105;0.02502700686454773;0.026335304530329028;0.09916038066148758;0.019666196778416634;0.9513924717903137
60500;-0.11658161133527756;-0.11289846398348158;0.025828057900071144;0.02827185929140626;0.12534454464912415;0.030106279999017715;0.9501740336418152
60600;-0.11754625290632248;-0.11660138918192081;0.02750946767628193;0.028952264424853665;0.12001072615385056;0.029620693996548653;0.9226362705230713
60700;-0.11783495545387268;-0.11295171734924082;0.029157353565096855;0.010653119623814693;0.10910066217184067;-0.007960454560816288;0.907283365726471
60800;-0.11637033522129059;-0.1076773976975759;0.030891934409737587;0.033817057300001285;0.10206973552703857;0.056570667773485184;10.076.864.957.809.400
60900;-0.11443763226270676;-0.12197447465675189;0.032885000109672546;0.037172278261602444;0.13576970994472504;0.04030356928706169;10.110.981.464.385.900
61000;-0.11426541209220886;-0.11821904967537597;0.03519973158836365;0.03310520485614904;0.11370714008808136;0.029377900063991547;10.220.645.666.122.400
61100;-0.11441101878881454;-0.1150762948154322;0.0374293215572834;0.08508202579562318;0.11322224140167236;0.13742059469223022;10.535.014.867.782.500
61200;-0.11701799184083939;-0.1499893811660471;0.0427807979285717;0.11469358037001197;0.18595601618289948;0.14446158707141876;10.240.141.153.335.500
61300;-0.11882060021162033;-0.12940773467101166;0.04527204483747482;0.1399153047675616;0.11031289398670197;0.16582731902599335;10.279.133.319.854.700
61400;-0.12050467729568481;-0.13308809473293087;0.04413687437772751;0.04510388661579795;0.13625460863113403;-0.049692537635564804;0.9528546929359436
61500;-0.11956456303596497;-0.13129541763794986;0.04176470264792442;0.023048266458226385;0.12752655148506165;-0.0;0.9258043169975281
61600;-0.11677777022123337;-0.13953425002764736;0.05247697979211807;0.09491627353761799;0.14764957129955292;0.16534174978733063;0.9292160868644714
61700;-0.11541092395782471;-0.12608635242321403;0.06291907280683517;0.11104443343206655;0.11346468329429626;0.12649492919445038;0.9838041663169861
61800;-0.11310434341430664;-0.13777783184520506;0.06409259885549545;0.09173183020459802;0.15031647682189941;0.07138101756572723;0.9462748765945435
61900;-0.11179599910974503;-0.11442169130078846;0.05927836894989014;0.07022076724427527;0.09115966409444809;0.04904409870505333;0.9082581996917725
62000;-0.11408387124538422;-0.1265937073236485;0.059443533420562744;0.045317146503292154;0.13843661546707153;0.021122954785823822;0.9991570711135864
62100;-0.11708148568868637;-0.13248256407276676;0.05948258563876152;0.06766287515048638;0.13795173168182373;0.09031883627176285;10.206.023.454.666.100
62200;-0.11913809925317764;-0.1275156454415497;0.061049915850162506;0.09394608903256545;0.12243518978357315;0.1201823279261589;0.984535276889801
62300;-0.12024542689323425;-0.13717100123638512;0.06234598159790039;0.10827893939541064;0.14716465771198273;0.12261024862527847;0.9382328391075134
62400;-0.12203613668680191;-0.13512521810226896;0.06297909468412399;0.08890932665686499;0.13383014500141144;0.06943868100643158;0.9864848256111145
62500;-0.12244782596826553;-0.12574150584427538;0.06025515869259834;0.04918830364568254;0.11685892939567566;0.009226118214428425;0.9489555358886719
62600;-0.12182354182004929;-0.11816623712053144;0.05475594103336334;0.042704879220745534;0.11104022711515427;0.03617609292268753;0.9872159361839294
62700;-0.12023413926362991;-0.11382935459215132;0.052008312195539474;0.04425971842978239;0.10958555340766907;0.04564500227570534;0.956266462802887
62800;-0.1184588074684143;-0.11257363434878365;0.05240469425916672;0.036176756831564114;0.11128267645835876;0.027921147644519806;0.9930647015571594
62900;-0.1172604113817215;-0.10537085518039747;0.05247211083769798;0.05946186482026116;0.09843304753303528;0.08303505927324295;10.361.989.736.557.000
63000;-0.11816982179880142;-0.12802554925437512;0.05385492369532585;0.07594202340863249;0.15104380249977112;0.09250397235155106;0.9916024804115295
63100;-0.12097642570734024;-0.1305064660679669;0.05421692878007889;0.0666763906036316;0.13358770310878754;0.05729904770851135;0.9572411775588989
63200;-0.12231722474098206;-0.11676709306589164;0.05122695863246918;0.044979861265895656;0.10303951054811478;0.02330808714032173;0.9409134984016418
63300;-0.12202131748199463;-0.11700005971789369;0.05127330496907234;0.07526302014708344;0.11661648750305176;0.1051291823387146;0.9747873544692993
63400;-0.12209372967481613;-0.12264030272768947;0.05686104670166969;0.08158012598729315;0.12728409469127655;0.08716253191232681;0.8834010362625122
63500;-0.1200723648071289;-0.1289735267264504;0.0629582479596138;0.08758254710765218;0.13455748558044434;0.09323234856128693;0.9318967461585999
63600;-0.12072218209505081;-0.1304100186423387;0.06783074885606766;0.10445215693242597;0.13164812326431274;0.12115348875522614;10.527.703.762.054.400
63700;-0.12050383538007736;-0.14740559918338492;0.07062675058841705;0.14557839985588936;0.1643783301115036;0.18646469712257385;0.9728378057479858
63800;-0.12107618898153305;-0.12288955914072655;0.0749128982424736;0.1099848480340165;0.09843304753303528;0.07429452240467072;0.959190845489502
63900;-0.12088234722614288;-0.11482552057113095;0.07496754825115204;0.09261805588215494;0.10643375664949417;0.0755084902048111;0.9752748012542725
64000;-0.1217438280582428;-0.1321616639661086;0.07803981006145477;0.10224840966807991;0.14886178076267242;0.11168459057807922;0.9981822967529297
64100;-0.12174598127603531;-0.1291301143714474;0.08062009513378143;0.10833547082963473;0.12582942843437195;0.11386971920728683;0.9167875647544861
64200;-0.12092627584934235;-0.10359304185819346;0.08251708745956421;0.09204366981853207;0.0780675858259201;0.0755084902048111;0.982342004776001
64300;-0.11778160184621811;-0.10274331727337081;0.08251351863145828;0.10819963806970671;0.10231217741966248;0.12430980056524277;10.123.167.037.963.800
64400;-0.11617854982614517;-0.1079261863147428;0.08095695078372955;0.09385054284334388;0.11297979205846786;0.07963596284389496;0.9579722881317139
64500;-0.11680656671524048;-0.10278380007646404;0.081432044506073;0.07668530868250309;0.09746325761079788;0.05972697585821152;0.9923335909843445
64600;-0.11538510769605637;-0.08906239208642082;0.08165436238050461;0.07237133157846254;0.07491578906774521;0.06798192113637924;0.9872159361839294
64700;-0.11240384727716446;-0.0970626956088615;0.0827130451798439;0.09057481271691761;0.10497908294200897;0.10852827876806259;0.9721066951751709
64800;-0.11275414377450943;-0.10197570619274669;0.08355513215065002;0.12329261076424115;0.10691864788532257;0.15563005208969116;0.9440816044807434
64900;-0.11261676251888275;-0.11432071485465983;0.08577517420053482;0.11238955705786197;0.12655676901340485;0.1012445017695427;0.9721066951751709
65000;-0.11441317945718765;-0.10923758254238454;0.08570070564746857;0.08861498719838497;0.10400930047035217;0.0648256167769432;0.9401824474334717
65100;-0.11408158391714096;-0.10901708233938054;0.08532927185297012;0.07940756090811704;0.10885821282863617;0.0699242651462555;0.9487118124961853
65200;-0.1121879294514656;-0.09856664124054396;0.08507659286260605;0.08520574939177197;0.08825031667947769;0.09031883627176285;0.9565101265907288
65300;-0.11020829528570175;-0.10691284819154176;0.08515164256095886;0.05810166391336133;0.11516180634498596;0.030834658071398735;0.950417697429657
65400;-0.11010339856147766;-0.1115817995146967;0.08278093487024307;0.04999228278549333;0.11637403815984726;0.04176032170653343;10.140.225.887.298.500
65500;-0.11033522337675095;-0.12010260981364002;0.08042344450950623;0.040193920926650084;0.12849633395671844;0.030106279999017715;0.9406698346138
65600;-0.10962812602519989;-0.10898032189472034;0.07898911833763123;0.07747047182096531;0.09794814884662628;0.11435530334711075;0.9657706022262573
65700;-0.10843979567289352;-0.10772658939936165;0.07859843969345093;0.07676559263409401;0.10667620599269867;0.07599407434463501;0.9852663278579712
65800;-0.10883466899394989;-0.1096031050260908;0.07831023633480072;0.08303128141172611;0.11176756769418716;0.08934766799211502;0.9877033233642578
65900;-0.10970239341259003;-0.10389720725808321;0.07776956260204315;0.07484020821412594;0.09819059818983078;0.06676795333623886;10.318.124.294.281.000
66000;-0.11065824329853058;-0.09928728667512228;0.07773630321025848;0.04243502042147387;0.09455391019582748;0.010197288356721401;0.9143506288528442
66100;-0.11150404065847397;-0.0983199641260567;0.07974933832883835;0.09303661462598994;0.09794814884662628;0.14349040389060974;0.9416446089744568
66200;-0.11149248480796814;-0.11078325628019904;0.07992147654294968;0.08383458992324555;0.12364742159843445;0.07405173778533936;0.9479807615280151
66300;-0.1104867085814476;-0.09662727087539255;0.07822196185588837;0.051535228422389695;0.0824316069483757;0.018209444358944893;1.024.745.225.906.370
66400;-0.10544157773256302;-0.08065594289664016;0.0755632072687149;0.05474590441348267;0.06400572508573532;0.057784635573625565;10.698.291.063.308.700
66500;-0.10409342497587204;-0.09479109502957522;0.07661905139684677;0.08652147051965707;0.10958555340766907;0.11921115219593048;10.717.787.742.614.700
66600;-0.10707665234804153;-0.09142531596314021;0.07781369984149933;0.08729268512337035;0.08922009915113449;0.08959046006202698;0.9767369627952576
66700;-0.11146978288888931;-0.09685700427791011;0.0730886310338974;0.06059315614551844;0.10303951054811478;0.035204920917749405;0.9007035493850708
66800;-0.1151861771941185;-0.08577646849422821;0.06769896298646927;0.039113377874453716;0.07418844848871231;0.017966650426387787;0.9104514122009277
66900;-0.11374405771493912;-0.08374980779604754;0.06612681597471237;0.04713707067176147;0.0807344913482666;0.05389995500445366;0.958459734916687
67000;-0.10657601058483124;-0.09093705955757544;0.07199302315711975;0.08075927234951996;0.09794814884662628;0.11217017471790314;0.9643084406852722
67100;-0.09842025488615036;-0.08477253428513552;0.07270139455795288;0.09994193236396487;0.0792798176407814;0.11751160025596619;1.002.325.177.192.680
67200;-0.09306741505861282;-0.08762521277044127;0.07298740744590759;0.0862032176758263;0.09140210598707199;0.0721093937754631;0.9981822967529297
67300;-0.09350472688674927;-0.10875503065100448;0.0709635466337204;0.061247972299068455;0.13067834079265594;0.03714726120233536;0.9314092993736267
67400;-0.10113058984279633;-0.12611730459494142;0.06674220412969589;0.050126478973720454;0.14328552782535553;0.03981798142194748;0.9233673214912415
67500;-0.1061708852648735;-0.12422955533741609;0.06457998603582382;0.06728528316583049;0.12195029854774475;0.08424901962280273;0.9487118124961853
67600;-0.10604577511548996;-0.1322337894618541;0.06842710077762604;0.1265256163903428;0.13989129662513733;0.1850079447031021;0.9974511861801147
67700;-0.10479214787483215;-0.11744842072225087;0.07461518049240112;0.11957108694220663;0.10303951054811478;0.11192738264799118;0.9869722723960876
67800;-0.10253714770078659;-0.11828653736186454;0.07388828694820404;0.1043300797114236;0.11928339302539825;0.08886208385229111;0.9638210535049438
67900;-0.10269530117511749;-0.12606370117713206;0.07174670696258545;0.07865695379403037;0.13383014500141144;0.05317157506942749;0.9301908612251282
68000;-0.10357092320919037;-0.10537709005107307;0.07312146574258804;0.07225995407060289;0.0846136286854744;0.0665251612663269;0.9781991243362427
68100;-0.10469561070203781;-0.11179242988357779;0.0744112953543663;0.07335999925466175;0.11807116121053696;0.07478010654449463;0.9789302349090576
68200;-0.10428977757692337;-0.09807613682383483;0.07442262768745422;0.0945865195640675;0.0843711793422699;0.11556927114725113;10.140.225.887.298.500
68300;-0.10170845687389374;-0.09081886364177691;0.07539309561252594;0.08847290964187542;0.083643838763237;0.08230668306350708;0.9862411618232727
68400;-0.10101344436407089;-0.09773084502857592;0.07691068202257156;0.08988135537040517;0.10497908294200897;0.09153279662132263;0.9416446089744568
68500;-0.10081823170185089;-0.08360870657743433;0.07741040736436844;0.05873711664150029;0.06933953613042831;0.027192767709493637;0.889493465423584
68600;-0.09598886966705322;-0.06213335257665384;0.07719099521636963;0.05175965363056521;0.04073091223835945;0.043702661991119385;0.9365270137786865
68700;-0.08847573399543762;-0.04618227947306393;0.07608917355537415;0.05859809503456091;0.030063293874263763;0.0643400326371193;0.990384042263031
68800;-0.08151616156101227;-0.058336335498753715;0.07514286041259766;0.06029352539103845;0.07055176049470901;0.061426520347595215;10.722.661.018.371.500
68900;-0.07861394435167313;-0.06523273620465023;0.07334236800670624;0.05959429172773729;0.07200643420219421;0.05875580012798309;1.024.745.225.906.370
69000;-0.07916657626628876;-0.06988633030792808;0.07209362089633942;0.042734540331410206;0.07467333972454071;0.026464389637112617;0.9952579140663147
69100;-0.08239945769309998;-0.08152621230521453;0.06917087733745575;0.036307764148885834;0.09334167838096619;0.030834658071398735;0.9219051599502563
69200;-0.08762133866548538;-0.09159633698287196;0.06639024615287781;0.034756814987876264;0.10134238749742508;0.033748168498277664;0.991358757019043
69300;-0.09018295258283615;-0.1059962118688588;0.06508664786815643;0.050929746967514664;0.12001072615385056;0.06701074540615082;10.020.813.941.955.500
69400;-0.09088651835918427;-0.0959601863139248;0.0655466616153717;0.03888391772994612;0.0855834111571312;0.026464389637112617;0.9706445932388306
69500;-0.09054290503263474;-0.09312919451445231;0.06606949120759964;0.049358963812919654;0.09067477285861969;0.05972697585821152;0.9747873544692993
69600;-0.08977781236171722;-0.08335842300243364;0.06409488618373871;0.054137319294839316;0.07394600659608841;0.059241387993097305;10.118.293.762.207.000
69700;-0.09015680849552155;-0.08816252850152037;0.06251206994056702;0.04825255036839829;0.09309922903776169;0.04273149371147156;0.9314092993736267
69800;-0.09187722951173782;-0.09273100602896957;0.06126922741532326;0.03908648983996873;0.09722080826759338;0.02986348792910576;0.9216614961624146
69900;-0.09246048331260681;-0.09566662449332497;0.060181498527526855;0.04551453957711159;0.09843304753303528;0.051472026854753494;0.889493465423584
70000;-0.09181693941354752;-0.10460473444538532;0.060274846851825714;0.06042356019690059;0.11346468329429626;0.07453731447458267;0.9967200756072998
70100;-0.08937382698059082;-0.09019192439316175;0.061833932995796204;0.05092886383660215;0.07588557153940201;0.04054636135697365;0.9740563035011292
70200;-0.08629081398248672;-0.08708624892892161;0.06111724302172661;0.05516017843506923;0.0843711793422699;0.05875580012798309;0.9898965954780579
70300;-0.08551473170518875;-0.09224306572454435;0.060449495911598206;0.04839388581946731;0.09794814884662628;0.04176032170653343;0.9711319208145142
70400;-0.08699412643909454;-0.08784022149758357;0.057524193078279495;0.044317414443985674;0.083643838763237;0.04054636135697365;0.9735689163208008
70500;-0.0879402682185173;-0.08974083083514209;0.055777087807655334;0.03946048759104463;0.09140210598707199;0.035204920917749405;0.9857537150382996
70600;-0.09074284136295319;-0.09389585535234596;0.056481994688510895;0.029837030856210534;0.09794814884662628;0.020394576713442802;0.9850226640701294
70700;-0.0919143557548523;-0.10739104552091933;0.05587233975529671;0.04004001032547547;0.12122295796871185;0.050015270709991455;0.988434374332428
70800;-0.0936976969242096;-0.13141537910161172;0.05387124791741371;0.03212993672977898;0.1556502729654312;0.023793673142790794;0.9294597506523132
70900;-0.09634366631507874;-0.12129104679714531;0.05000884085893631;0.027728099088974927;0.11104022711515427;0.023065295070409775;0.9041153192520142
71000;-0.09714413434267044;-0.10474830748040173;0.050322189927101135;0.02086254745264931;0.0880078673362732;0.013596383854746819;0.9621151685714722
71100;-0.09567555785179138;-0.11235274102598572;0.05022454261779785;0.027636292896804176;0.11952584236860275;0.03423375263810158;1.024.745.225.906.370
71200;-0.09726282209157944;-0.10090477284387357;0.051892444491386414;0.02959104160297201;0.08897764980792999;0.03180582821369171;10.330.308.675.765.900
71300;-0.09915340691804886;-0.1089259402143726;0.052349042147397995;0.05287911323290659;0.11685892939567566;0.07647965848445892;0.9974511861801147
71400;-0.1009790375828743;-0.10812718814111513;0.05439823120832443;0.03742709057089525;0.10667620599269867;0.022579709067940712;0.9835605025291443
71500;-0.10484060645103455;-0.11952170179549476;0.05502701178193092;0.042333089287775155;0.13067834079265594;0.04783013463020325;0.8821825981140137
71600;-0.10812082886695862;-0.11739850002564825;0.05810391902923584;0.04430694340868709;0.11540426313877106;0.04613059014081955;10.103.671.550.750.700
71700;-0.10837282240390778;-0.111936506348733;0.056982070207595825;0.040822320256174646;0.10667620599269867;0.036418888717889786;1.026.207.447.052.000
71800;-0.10601548850536346;-0.094825570997163;0.05592160299420357;0.048376070852864016;0.078310027718544;0.0553567074239254;0.9401824474334717
71900;-0.10441597551107407;-0.10010742056698757;0.05414735898375511;0.03341586859963788;0.10570641607046127;0.018209444358944893;10.188.965.797.424.300
72000;-0.1035473495721817;-0.09954260276063828;0.05043637752532959;0.027261760624172675;0.09916038066148758;0.021122954785823822;0.8795019388198853
72100;-0.1031452938914299;-0.10945055606553004;0.05228092893958092;0.06146674618148455;0.11976828426122665;0.096145860850811;10.308.376.550.674.400
72200;-0.10408711433410645;-0.12520323049139204;0.0506470687687397;0.05025660767351859;0.14134596288204193;0.03957518935203552;0.9791739583015442
72300;-0.10649893432855606;-0.10576257279603712;0.05060560628771782;0.05927952615912106;0.0875229761004448;0.06846750527620316;0.9453001022338867
72400;-0.10735564678907394;-0.1031344205281791;0.048032037913799286;0.04061810681750563;0.10158483684062958;0.0220941249281168;0.9077707529067993
72500;-0.10634342581033707;-0.09850103692190926;0.04228730872273445;0.046069751299188264;0.09479635208845139;0.051472026854753494;10.045.183.897.018.400
72600;-0.107097327709198;-0.09088521987752869;0.03827965632081032;0.08080012857368409;0.0855834111571312;0.11532647162675858;0.8853506445884705
72700;-0.10662660747766495;-0.0896299254930484;0.031124021857976913;0.015089422708590317;0.08946254104375839;-0.051139891147613525;10.167.032.480.239.800
72800;-0.1050744503736496;-0.08606171571708944;0.02125796489417553;-0.021462937217509845;0.0831589475274086;-0.05861789360642433;10.096.360.445.022.500
72900;-0.10291997343301773;-0.08695179686858304;0.016687773168087006;-0.029229704201457388;0.0875229761004448;-0.03714878484606743;10.071.990.489.959.700
73000;-0.1023017168045044;-0.082548055235211;0.015821905806660652;-0.009910465045538375;0.078310027718544;0.009711703285574913;0.9974511861801147
73100;-0.10311958938837051;-0.08620725455181699;0.015543650835752487;0.010041041421347645;0.09067477285861969;0.030106279999017715;0.9645521640777588
73200;-0.10371559858322144;-0.09070169465545536;0.01180200930684805;-0.020340587017096637;0.09552369266748428;-0.05089866369962692;0.9545605182647705
73300;-0.10467451065778732;-0.09738102395677325;0.007397217210382223;-0.03824175159179147;0.10376685857772827;-0.0562056340277195;0.9796612858772278
73400;-0.10458716005086899;-0.1005935697517745;0.005913550034165382;-0.028814287660519383;0.10303951054811478;-0.019539296627044678;0.9367707371711731
73500;-0.10457965731620789;-0.11344802200290664;0.007587864063680172;0.006149043320507596;0.12631432712078094;0.04054636135697365;0.955535352230072
73600;-0.10416443645954132;-0.11642511402616457;0.010072699747979641;0.008418884427826543;0.11952584236860275;0.00995449535548687;0.9306783080101013
73700;-0.10386352241039276;-0.10531083878596026;0.010373583994805813;0.004092439475694695;0.09431146085262299;-0.0004824517818633467;0.9182497262954712
73800;-0.10326515138149261;-0.09651086665376452;0.009429113939404488;0.009300923580571935;0.08825031667947769;0.01456755492836237;0.9967200756072998
73900;-0.1040893942117691;-0.09428169428611115;0.008931517601013184;0.034821002242327655;0.09237189590930939;0.06021255999803543;0.9489555358886719
74000;-0.10343429446220398;-0.09361282904143975;0.008889101445674896;0.011439881326859146;0.09285678714513779;-0.0123025206848979;0.9284850358963013
74100;-0.10237254202365875;-0.08805321655414529;0.008656059391796589;0.008235269752385721;0.0824316069483757;0.004613059107214212;0.9379891753196716
74200;-0.09859834611415863;-0.07204451670373269;0.009155578911304474;0.011310247312423999;0.05600500851869583;0.014081968925893307;0.9691823720932007
74300;-0.09570662677288055;-0.06595112428866835;0.0104433074593544;0.008115248918824982;0.06012658774852753;0.004613059107214212;0.9431067705154419
74400;-0.0933438166975975;-0.07565596186342158;0.010612296871840954;0.005755924197826661;0.0853409618139267;0.0031563034281134605;1.010.610.818.862.910
74500;-0.09289363771677017;-0.08531870338769003;0.01144335325807333;0.01603394682183036;0.09479635208845139;0.02622159756720066;0.9655268788337708
74600;-0.09402214735746384;-0.10599403520001591;0.012130209244787693;0.023927345609775327;0.12655676901340485;0.032291412353515625;0.9967200756072998
74700;-0.09948454052209854;-0.11698497533121739;0.016146615147590637;0.02379159944568631;0.12776899337768555;0.02403646521270275;0.9838041663169861
74800;-0.10417040437459946;-0.114648103455806;0.019327830523252487;0.02495861405702266;0.11225245893001556;0.025978805497288704;0.9672328233718872
74900;-0.10501713305711746;-0.11555687484639891;0.01991693302989006;0.022900975777222284;0.11661648750305176;0.02063736878335476;0.9331152439117432
75000;-0.10598421841859818;-0.1147386081318614;0.019003871828317642;0.008032972814579542;0.11419202387332916;-0.006995550822466612;0.9859974384307861
75100;-0.10706852376461029;-0.1149105731081424;0.01725202612578869;-0.005801419564430652;0.11540426313877106;-0.01978052407503128;0.9757621884346008
75200;-0.1068083718419075;-0.11503174971504346;0.015210333280265331;0.007014558107749468;0.11564670503139496;0.019423406571149826;10.332.746.505.737.300
75300;-0.10591468960046768;-0.1072673340451358;0.014531769789755344;0.025748322287738986;0.09964527189731598;0.0441882498562336;0.9774680733680725
75400;-0.10540985316038132;-0.09775921958780172;0.014571861363947392;0.01533090267728709;0.08849275857210159;0.0048558516427874565;0.9640647172927856
75500;-0.1052095964550972;-0.09773349253136837;0.013860872015357018;0.021493392183097253;0.09819059818983078;0.0276783537119627;0.9747873544692993
75600;-0.10511204600334167;-0.09994343635309298;0.013700590468943119;0.020339255919905878;0.10279706865549088;0.018937820568680763;0.9825856685638428
75700;-0.10385312139987946;-0.09254315657182924;0.012223796918988228;0.007395722861616291;0.0855834111571312;-0.006030647549778223;0.9691823720932007
75800;-0.10255233198404312;-0.09108928349470861;0.009264972060918808;-0.026186058829866063;0.0901898741722107;-0.06030647084116936;0.9465185403823853
75900;-0.10239511728286743;-0.11742398416658145;0.005169248208403587;-0.03634183816927954;0.14401286840438843;-0.046797823160886765;0.9655268788337708
76000;-0.10551952570676804;-0.1312271039368777;0.003025858663022518;-0.020965258063389298;0.14546756446361542;-0.006030647549778223;0.9608966708183289
76100;-0.10702043026685715;-0.12715055311751786;0.0020682846661657095;-0.019845857341843715;0.12292007356882095;-0.019298071041703224;0.9633336067199707
76200;-0.10762277990579605;-0.12398253617022219;0.0021175576839596033;0.0019298891860983838;0.12098050862550735;0.02330808714032173;0.9494429230690002
76300;-0.10974447429180145;-0.12694081973503263;0.004102945327758789;0.010818316234928127;0.12995101511478424;0.019666196778416634;10.527.703.762.054.400
76400;-0.11209619045257568;-0.12589050718200562;0.00636001443490386;0.016692469125313747;0.12485965341329575;0.022579709067940712;0.9267790913581848
76500;-0.11430291831493378;-0.1193079487537888;0.008897488005459309;0.007719138791126866;0.11225245893001556;-0.0012061294401064515;0.9433504939079285
76600;-0.11621402949094772;-0.10688381054321856;0.01167308259755373;0.027425982164029424;0.09431146085262299;0.04685896635055542;0.9613840579986572
76700;-0.11542393267154694;-0.10269917229184411;0.014479415491223335;0.045319080432771025;0.09843304753303528;0.06288327276706696;0.9855100512504578
76800;-0.11429354548454285;-0.11511528245853722;0.019458463415503502;0.06212470835995977;0.12849633395671844;0.07842200249433517;0.973325252532959
76900;-0.1128552034497261;-0.10492527114827903;0.021205510944128036;0.04613024037002864;0.09552369266748428;0.031077450141310692;10.420.477.390.289.300
77000;-0.1108008325099945;-0.10163627275530249;0.019700536504387856;0.030304385509592132;0.09891793131828308;0.014081968925893307;0.9940394163131714
77100;-0.10893016308546066;-0.09321926150406695;0.018605424091219902;0.029594868836809916;0.0848560705780983;0.028649523854255676;0.981610894203186
77200;-0.10540638118982315;-0.06812265558884398;0.01984998770058155;0.04024114315023262;0.04364026337862015;0.050743646919727325;0.9947705268859863
77300;-0.10249371826648712;-0.06658993147947945;0.021622391417622566;0.049789838727999525;0.06546039879322052;0.059241387993097305;0.9940394163131714
77400;-0.0998864620923996;-0.07277673770285571;0.02207835763692856;0.042502162883448706;0.0797647088766098;0.03544771298766136;0.9920898675918579
77500;-0.09964200854301453;-0.0730970634145588;0.02083592116832733;0.026826615711465777;0.07346111536026001;0.011411250568926334;0.9955016374588013
77600;-0.09845102578401566;-0.07313814107735857;0.021265635266900063;0.021346505727402362;0.07321866601705551;0.015781516209244728;0.9606529474258423
77700;-0.09680318832397461;-0.07110053514733222;0.0233379527926445;0.03873145927804172;0.06958197802305222;0.05584229528903961;0.9516361951828003
77800;-0.0928666889667511;-0.07275701245862155;0.024657120928168297;0.05753476745972902;0.07515823841094971;0.07599407434463501;10.240.141.153.335.500
77900;-0.09027858823537827;-0.06590064665270134;0.024207741022109985;0.03468038989676862;0.05939924716949463;0.011896836571395397;10.096.360.445.022.500
78000;-0.08797164261341095;-0.06758012911476512;0.02365872450172901;0.03673916005014945;0.06958197802305222;0.038604021072387695;1.006.711.721.420.280
78100;-0.08570802211761475;-0.07214680419261571;0.023847540840506554;0.02808861114323661;0.0768553614616394;0.01918061450123787;0.9577286243438721
78200;-0.0842105820775032;-0.07606133031965032;0.024248871952295303;0.03360525124802695;0.0800071507692337;0.03908960521221161;0.9579722881317139
78300;-0.0834435522556305;-0.06885465104205556;0.026105472818017006;0.043161935450978905;0.061823710799217224;0.05268598720431328;0.9996444582939148
78400;-0.08253968507051468;-0.0650215149198777;0.02679573744535446;0.03989366003021886;0.061581265181303024;0.03666168078780174;0.9482244849205017
78500;-0.08250727504491806;-0.059753052700498036;0.026379741728305817;0.035825194930811904;0.054792776703834534;0.03180582821369171;10.505.770.444.869.900
78600;-0.08190512657165527;-0.06778950507945113;0.02677520178258419;0.031652860553386425;0.07588557153940201;0.027192767709493637;0.8799893260002136
78700;-0.08016131818294525;-0.06942217883034865;0.02798197604715824;0.026774764435222323;0.07103665918111801;0.02136574685573578;0.9767369627952576
78800;-0.07794075459241867;-0.06404388067742975;0.028838280588388443;0.025737690667996752;0.05842946469783783;0.024279257282614708;0.9928209781646729
78900;-0.07472048699855804;-0.06292778342429473;0.031013580039143562;0.018687317129214003;0.060853924602270126;0.011411250568926334;0.9923335909843445
79000;-0.07206713408231735;-0.07102611132672797;0.03344977647066116;0.018489319969884028;0.0780675858259201;0.017481066286563873;101.134.192.943.573
79100;-0.06897901743650436;-0.05870415556943776;0.03800010681152344;0.04910217230780885;0.045579832047224045;0.07890758663415909;10.011.066.198.349
79200;-0.06504500657320023;-0.05362990021931817;0.04234294593334198;0.044753573157133;0.04800429195165634;0.03957518935203552;0.9462748765945435
79300;-0.06253823637962341;-0.04928448245014101;0.04630105569958687;0.054070559236389676;0.044852495193481445;0.06385444849729538;0.840266764163971
79400;-0.06327833235263824;-0.054933547202255247;0.04935391992330551;0.05682307530727099;0.06036903336644173;0.059969767928123474;0.9869722723960876
79500;-0.06472503393888474;-0.06120908996915471;0.05108006298542023;0.06060575848322857;0.06739996373653412;0.06458282470703125;10.074.427.127.838.100
79600;-0.06461752951145172;-0.06436483966937265;0.052431620657444;0.05601356769309497;0.06739996373653412;0.051472026854753494;1.040.341.854.095.450
79700;-0.06417200714349747;-0.05961893271708146;0.05360489711165428;0.05220928023076719;0.054792776703834534;0.048558514565229416;0.972594141960144
79800;-0.06370200216770172;-0.057625064639394555;0.05466326326131821;0.054828766753492714;0.05576256290078163;0.05754183977842331;0.9192245006561279
79900;-0.06283243000507355;-0.053151027100101736;0.05317351967096329;0.0559782799369174;0.04897407442331314;0.057056255638599396;0.9482244849205017
80000;-0.06153224781155586;-0.048464511571848425;0.05208475515246391;0.050304793539247085;0.04388270899653435;0.044431041926145554;0.9567538499832153
80100;-0.05899607017636299;-0.054919896065817764;0.05156761035323143;0.040538987471731416;0.061096370220184326;0.030106279999017715;10.435.099.601.745.600
80200;-0.056357041001319885;-0.04741171007758192;0.05270974338054657;0.02432767509362637;0.03951868414878845;0.007283777464181185;10.079.301.595.687.800
80300;-0.0523010715842247;-0.04010697141042621;0.053344786167144775;0.06341849274537506;0.03224530443549156;0.10197287797927856;1.029.375.433.921.810
80400;-0.04984695836901665;-0.039796496527836664;0.05855725705623627;0.09299298011688668;0.03951868414878845;0.12261024862527847;10.520.392.656.326.200
80500;-0.04947977885603905;-0.0407967702902156;0.06359970569610596;0.11361015925953041;0.04267048090696335;0.13499267399311066;0.9472496509552002
80600;-0.0514332540333271;-0.04203554408761736;0.06488373875617981;0.09747860680815496;0.044367603957653046;0.08254947513341904;10.191.402.435.302.700
80700;-0.053198013454675674;-0.03298914091410041;0.062190670520067215;0.06915674569258935;0.02472948282957077;0.04200311377644539;0.981610894203186
80800;-0.05562632158398628;-0.040554883665765075;0.059286367148160934;0.04995947145364001;0.04824673756957054;0.03204862028360367;0.9567538499832153
